timestamp,gyro_x,gyro_y,gyro_z,acc_x,acc_y,acc_z
0,0.18082331120967865,0.34726595878601074,-0.24007689952850342,-0.3072265088558197,0.3205550014972687,1.0645719766616821
0.02,0.19147562980651855,0.1704372763633728,-0.4732297658920288,-0.34483301639556885,0.2978629767894745,1.0943704843521118
0.04,0.09666989743709564,0.3845491111278534,-0.5264914035797119,-0.41495248675346375,0.2953925132751465,1.0696959495544434
0.06,-0.28455036878585815,0.4292888939380646,-0.305056095123291,-0.46134302020072937,0.2751404941082001,0.9895725250244141
0.08,-0.7850767374038696,0.28228676319122314,0.11145000159740448,-0.4869935214519501,0.23555149137973785,0.9157930016517639
0.1,-0.790402889251709,-0.023301972076296806,0.2902759909629822,-0.37975549697875977,0.22383949160575867,0.9189650416374207
0.12,-0.06298190355300903,-0.37695932388305664,0.5746932029724121,-0.37633949518203735,0.25241798162460327,1.075063943862915
0.14,1.2043790817260742,-1.07135808467865,0.8749557733535767,-0.4093404710292816,0.24680599570274353,1.236286997795105
0.16,1.3704222440719604,0.040612008422613144,0.4244953691959381,-0.19144849479198456,0.2521739900112152,1.1703460216522217
0.18,1.4652280807495117,0.2865476906299591,0.22955772280693054,-0.19044199585914612,0.2555899918079376,0.8906304836273193
0.2,1.3480523824691772,0.41011470556259155,0.13595037162303925,-0.28255200386047363,0.32961350679397583,0.7548140287399292
0.22,0.9892020225524902,0.0768299326300621,0.18814678490161896,-0.4041860103607178,0.3647800087928772,0.6983889937400818
0.24,0.8421998620033264,-0.5440677404403687,0.48414841294288635,-0.47503748536109924,0.3244895040988922,0.6710304617881775
0.26,1.3086388111114502,-1.6539074182510376,1.1497858762741089,-0.4384070038795471,0.2231075018644333,0.808555006980896
0.28,1.160704493522644,-2.4483048915863037,1.1412640810012817,-0.341172993183136,0.24827000498771667,0.771680474281311
0.3,0.19893226027488708,-2.9594836235046387,0.558714747428894,-0.1765339970588684,0.5518975257873535,0.5374099612236023
0.32,-0.22063638269901276,-0.7294183373451233,0.45006096363067627,-0.12840498983860016,0.6122264862060547,0.9460795521736145
0.34,-0.22809302806854248,-0.3513937294483185,0.6886731386184692,-0.26958951354026794,0.5660494565963745,1.0259590148925781
0.36,-0.3346163332462311,-1.520753264427185,0.9271522164344788,-0.16259551048278809,0.3799385130405426,0.7582300305366516
0.38,-0.5902722477912903,-1.9541699886322021,1.2584396600723267,-0.07661599665880203,0.35233601927757263,0.7838805317878723
0.4,-0.61250901222229,-1.4685568809509277,1.2967880964279175,0.21526899933815002,0.33986151218414307,0.91628098487854
0.42,-0.3516600430011749,-0.63248211145401,2.02740478515625,0.12806950509548187,0.23945550620555878,0.852292001247406
0.44,0.06684337556362152,-1.6634944677352905,2.5044960975646973,0.03745400160551071,0.23213550448417664,0.7616764903068542
0.46,0.6121095418930054,-2.9552226066589355,2.3777332305908203,0.1979449987411499,0.31372299790382385,0.7338299751281738
0.48,0.509980320930481,-2.957353115081787,2.05603289604187,0.4241330325603485,0.40067851543426514,0.5721189975738525
0.5,-0.47842279076576233,-2.517544984817505,1.622616171836853,0.48641401529312134,0.4090050160884857,0.4590250253677368
0.52,-1.5551071166992188,-2.1736080646514893,1.444722294807434,0.48641401529312134,0.4090050160884857,0.4590250253677368
0.54,-1.5732160806655884,-1.596384882926941,1.8782721757888794,0.3689279854297638,0.18964900076389313,0.9155490398406982
0.56,-0.9682968258857727,-1.3428593873977661,2.1327297687530518,0.33351749181747437,0.13566400110721588,0.8388414978981018
0.58,-0.6284874677658081,-2.698634624481201,2.305297374725342,0.3413254916667938,0.028425998985767365,0.5618404746055603
0.6,0.06577813625335693,-4.578371524810791,2.9304561614990234,0.24506749212741852,-0.26202550530433655,0.7538380026817322
0.62,1.7294057607650757,-5.782883644104004,3.944291591644287,0.22457149624824524,-0.61012202501297,0.8425320386886597
0.64,3.6400344371795654,-6.545457363128662,5.363980770111084,0.23847949504852295,-0.906185507774353,0.6038694977760315
0.66,4.261864185333252,-6.395259380340576,6.037075042724609,0.5137724876403809,-0.995824933052063,0.12117649614810944
0.68,3.641099691390991,-5.448400497436523,6.705908298492432,0.6632834672927856,-1.148477554321289,-0.24522000551223755
0.7,3.2139410972595215,-4.499544143676758,6.866758346557617,0.9837775230407715,-1.1663200855255127,0.1441430002450943
0.72,4.045754909515381,-3.8594725131988525,6.552514553070068,1.2612664699554443,-1.175592064857483,0.4707370102405548
0.74,4.423779487609863,-2.647503614425659,5.884746551513672,1.7600634098052979,-1.024159550666809,0.4514304995536804
0.76,4.3939528465271,-0.7986584305763245,4.5044708251953125,2.0717430114746094,-0.8475339412689209,0.5186220407485962
0.78,4.7273712158203125,-0.04673709720373154,3.1967642307281494,2.227354049682617,-0.6941494941711426,0.6356199979782104
0.8,5.003133296966553,-0.5781552195549011,1.3532453775405884,2.362926483154297,-0.37585151195526123,0.24991700053215027
0.82,4.027646064758301,-0.8817466497421265,-0.34233927726745605,2.2224740982055664,-0.0802759975194931,-0.541527509689331
0.84,1.6931878328323364,0.20452474057674408,-1.7949177026748657,1.7214809656143188,-0.015310999006032944,-0.9079544544219971
0.86,0.11051792651414871,0.7252905368804932,-2.722602367401123,1.4329814910888672,-0.11693699657917023,-0.7545395493507385
0.88,-0.6529878377914429,0.19813334941864014,-3.585174798965454,1.2578504085540771,-0.2651975154876709,-0.6003925204277039
0.9,-1.5902597904205322,-0.4547213613986969,-4.195420265197754,1.0333399772644043,-0.43764451146125793,-0.6751480102539062
0.92,-2.8735992908477783,-0.22250054776668549,-4.00061559677124,0.42584097385406494,-0.6367484927177429,-0.6392495036125183
0.94,-3.222862482070923,-0.4440690279006958,-3.4584121704101562,0.42584097385406494,-0.6367484927177429,-0.6392495036125183
0.96,-2.444310426712036,-0.7677667140960693,-1.9515068531036377,0.32665500044822693,-0.7134560346603394,0.17955349385738373
0.98,-2.1738743782043457,-1.2576407194137573,-0.6170362234115601,-0.10202250629663467,-0.6406524777412415,0.7093995213508606
1,-2.3720076084136963,-2.3566949367523193,0.5885412693023682,-0.04193750023841858,-0.34946900606155396,0.22914649546146393
1.02,-2.1834614276885986,-2.6783952713012695,1.4841358661651611,0.4710420072078705,-0.6193940043449402,0.599965512752533
1.04,-1.6371300220489502,-2.324871063232422,1.7483136653900146,1.0326080322265625,-0.5680930018424988,0.5066354870796204
1.06,-2.1515045166015625,-3.580381393432617,1.20091712474823,1.0326080322265625,-0.5680930018424988,0.5066354870796204
1.08,-3.508344888687134,-5.751992225646973,0.5810846090316772,1.8673014640808105,-0.45402297377586365,-0.8392990231513977
1.1,-5.078098773956299,-3.88077712059021,0.36697277426719666,-0.129381000995636,-0.9015190005302429,0.367158979177475
1.12,-4.47744083404541,-1.244857907295227,2.509822130203247,-0.129381000995636,-0.9015190005302429,0.367158979177475
1.14,-3.548823833465576,-0.7528534531593323,4.9678473472595215,0.20453299582004547,-0.7578945159912109,-0.00878399983048439
1.16,-1.2770812511444092,-3.5315136909484863,7.067954063415527,1.8629095554351807,-0.5463464856147766,-0.09988749772310257
1.18,1.846448302268982,1.1886669397354126,2.829258918762207,2.179468870162964,-1.3270549774169922,-1.1009279489517212
1.2,1.3523132801055908,1.559234857559204,0.7227606177330017,2.179468870162964,-1.3270549774169922,-1.1009279489517212
1.22,0.5376763939857483,-0.7975932359695435,0.1615159511566162,1.151100516319275,-1.1831865310668945,-1.2711790800094604
1.24,0.9412665367126465,-2.6933085918426514,0.13701559603214264,0.41412898898124695,-0.6042659878730774,-0.25989049673080444
1.26,0.808112382888794,-3.108616352081299,-0.35405683517456055,0.3369334936141968,-0.581543505191803,-0.5803845524787903
1.28,0.5291544795036316,-1.8337986469268799,-0.004660394508391619,0.3366895020008087,-0.7134560346603394,-0.3324195146560669
1.3,0.1744319051504135,-0.4781564772129059,0.26897132396698,0.5899919867515564,-0.741302490234375,-0.3785965144634247
1.32,0.1531272530555725,-0.14473854005336761,0.03581846132874489,0.5357629656791687,-0.5791034698486328,-0.3815245032310486
1.34,-0.08641702681779861,0.9319457411766052,-0.19107617437839508,0.4786059856414795,-0.4711335301399231,-0.4223335087299347
1.36,-0.343138188123703,2.0725440979003906,0.03901416063308716,0.43486902117729187,-0.6853349804878235,-0.33562198281288147
1.38,-0.24620197713375092,2.2142200469970703,-0.05472634732723236,0.6657235026359558,-0.6880494952201843,-0.45871999859809875
1.4,-0.06830807030200958,1.6476491689682007,-0.28907760977745056,0.554825484752655,-0.5856914520263672,-0.5552220344543457
1.42,-0.23874534666538239,1.5144950151443481,-0.2720338702201843,0.5093805193901062,-0.6555364727973938,-0.541527509689331
1.44,-0.9256874918937683,1.7413896322250366,-0.015312724746763706,0.6503210067749023,-0.20950450003147125,-0.708606481552124
1.46,-0.35805144906044006,1.3919932842254639,0.06884068250656128,0.7888214588165283,-0.33848899602890015,-0.4479840099811554
1.48,0.24154159426689148,0.9021192193031311,0.18069015443325043,0.639585018157959,-0.46671098470687866,-0.3639565110206604
1.5,0.2830856740474701,0.6668358445167542,1.0123708248138428,0.25071001052856445,-1.1228575706481934,-0.48510247468948364
1.52,0.14140968024730682,0.7146382331848145,1.3830718994140625,0.6742634773254395,-0.7290719747543335,-0.43014150857925415
1.54,0.32143405079841614,0.7945306897163391,0.8323464393615723,0.794219970703125,-0.4852854907512665,-0.32046350836753845
1.56,0.6334142088890076,1.2078410387039185,1.4575051069259644,0.32470300793647766,-0.6235420107841492,-0.2071254998445511
1.58,0.6888062953948975,1.1950583457946777,2.6684086322784424,0.29563650488853455,-0.8805349469184875,-0.35196998715400696
1.6,0.5227631330490112,1.0810784101486206,2.834585189819336,0.8545490503311157,-0.859276533126831,-0.41132301092147827
1.62,-0.2057231217622757,1.4782770872116089,2.6769306659698486,0.4529554843902588,-0.9181415438652039,-0.2787089943885803
1.64,-0.24513675272464752,0.35578784346580505,2.9634783267974854,0.4842180013656616,-0.8873670101165771,-0.07496900111436844
1.66,-0.2983984053134918,0.7242252826690674,2.6280629634857178,0.3088430166244507,-0.8089514970779419,-0.10061950236558914
1.68,0.027429750189185143,-0.5579158067703247,2.8601505756378174,0.19111299514770508,-0.7361479997634888,-0.08058100193738937
1.7,0.5344806909561157,-2.0415191650390625,3.193568706512451,0.19111299514770508,-0.7361479997634888,-0.08058100193738937
1.72,0.5962641835212708,-2.1160852909088135,2.8463027477264404,0.26705801486968994,-1.0910764932632446,-0.26159849762916565
1.74,0.45884913206100464,-1.3140981197357178,2.42673397064209,0.26705801486968994,-1.0910764932632446,-0.26159849762916565
1.76,0.22662831842899323,-0.9009208083152771,2.1998393535614014,0.1559159904718399,-1.1335934400558472,-0.3844524919986725
1.78,-0.172700896859169,-0.38654643297195435,1.6567037105560303,0.08729100227355957,-1.0190354585647583,-0.24863600730895996
1.8,-0.235549658536911,-0.40678587555885315,1.2754833698272705,-0.02702300064265728,-0.910333514213562,-0.19343100488185883
1.82,-0.5071840882301331,-0.19800019264221191,0.8398030996322632,-0.02702300064265728,-0.910333514213562,-0.19343100488185883
1.84,-1.0982552766799927,0.13528458774089813,0.0454055592417717,-0.26202550530433655,-1.0131795406341553,-0.1260260045528412
1.86,-1.432605266571045,0.9372718930244446,-0.21664176881313324,-0.26202550530433655,-1.0131795406341553,-0.1260260045528412
1.88,-0.622096061706543,0.971359372138977,-0.2209026962518692,-0.0907985046505928,-0.865620493888855,-0.7782379984855652
1.9,0.04553871229290962,-0.34180665016174316,-0.38388335704803467,0.022783499211072922,-0.8091955184936523,-0.4467640221118927
1.92,0.4205007255077362,-0.15432563424110413,-0.4220985770225525,0.06115249916911125,-0.8587885499000549,-0.3644444942474365
1.94,0.3778914213180542,-0.3726983964443207,-0.4306204617023468,0.06115249916911125,-0.9281455278396606,-0.3468460142612457
1.96,0.18082331120967865,-0.7603100538253784,-0.44872942566871643,0.04038200154900551,-0.9787145256996155,-0.39351099729537964
1.98,0.05512581020593643,-0.7890713810920715,-0.42529428005218506,0.01668350026011467,-0.9701744914054871,-0.28432101011276245
2,0.04234301298856735,-0.33221954107284546,-0.3721657991409302,-0.0070150005631148815,-0.960170567035675,-0.19513900578022003
2.02,-0.07896039634943008,-0.14793424308300018,-0.26777294278144836,0.0000914999982342124,-0.9594384431838989,-0.28041699528694153
2.04,-0.17057043313980103,0.047003407031297684,-0.08029194176197052,-0.006527000106871128,-0.974322497844696,-0.25354650616645813
2.06,-0.17589659988880157,-0.047802332788705826,0.012383334338665009,0.021075500175356865,-0.9105775356292725,-0.3825004994869232
2.08,-0.11624355614185333,-0.054193731397390366,-0.05792204663157463,-0.02311900071799755,-0.9139935374259949,-0.34196600317955017
2.1,-0.006524552125483751,-0.026497671380639076,-0.007856093347072601,-0.021654998883605003,-0.9210695028305054,-0.33635398745536804
2.12,0.00399462366476655,0.020372580736875534,-0.012117025442421436,-0.04559750109910965,-0.9244855046272278,-0.3231475055217743
2.14,-0.03528584539890289,0.07469946891069412,-0.039813082665205,-0.029737500473856926,-0.929609477519989,-0.3302235007286072
2.16,-0.060851436108350754,0.09174319356679916,-0.05685681104660034,-0.009699000045657158,-0.931835949420929,-0.3224155008792877
2.18,-0.0768299326300621,0.09706936031579971,-0.0717700719833374,0.028669999912381172,-0.9457440376281738,-0.3253434896469116
2.2,-0.066177599132061,0.10026505589485168,-0.06005251035094261,0.05185000225901604,-0.9374480247497559,-0.34099000692367554
2.22,0.009320789016783237,0.09493889659643173,-0.014247491955757141,0.06334850192070007,-0.8966389894485474,-0.3424540162086487
2.24,0.08388710021972656,0.05978620424866676,0.009187635034322739,0.07359649986028671,-0.8839510083198547,-0.3468460142612457
2.26,0.16377957165241241,0.004394086077809334,0.04007939249277115,0.04306600242853165,-0.8902950286865234,-0.3383060097694397
2.28,0.19254086911678314,-0.009453942999243736,0.03901416063308716,0.023759499192237854,-0.895175039768219,-0.32583150267601013
2.3,0.18082331120967865,0.0033288532868027687,0.03155753016471863,0.005947500001639128,-0.9244855046272278,-0.31582748889923096
2.32,0.17336668074131012,0.008655018173158169,0.0017310036346316338,0.005947500001639128,-0.9244855046272278,-0.31582748889923096
2.34,0.15099677443504333,0.017176883295178413,-0.07816147059202194,0.012291500344872475,-0.9564799666404724,-0.29066500067710876
2.36,0.1222354918718338,0.004394086077809334,-0.13142313063144684,0.012291500344872475,-0.9621224999427795,-0.2940810024738312
2.38,0.09880036115646362,-0.0009320789249613881,-0.12929265201091766,0.013023500330746174,-0.9533079862594604,-0.2848089933395386
2.4,0.08175663650035858,-0.022236740216612816,-0.07390054315328598,0.013023500330746174,-0.9533079862594604,-0.2848089933395386
2.42,0.08388710021972656,0.05659050494432449,-0.006790860556066036,0.008143500424921513,-0.9139935374259949,-0.2391199916601181
2.44,0.10199606418609619,0.1267627328634262,0.10292813926935196,-0.011895000003278255,-0.9105775356292725,-0.23594799637794495
2.46,0.07430000603199005,0.15126308798789978,0.10079767554998398,-0.011895000003278255,-0.9105775356292725,-0.23594799637794495
2.48,0.00719032296910882,0.13208889961242676,0.05925358831882477,-0.01384699996560812,-0.9816425442695618,-0.2611105144023895
2.5,-0.008655018173158169,0.1374150663614273,0.07203638553619385,0.003263500053435564,-0.994117021560669,-0.2652585208415985
2.52,0.015712186694145203,0.14167599380016327,0.10292813926935196,0.015463500283658504,-0.9728584289550781,-0.2713584899902344
2.54,0.05299534276127815,0.14274121820926666,0.11251524090766907,0.011559500358998775,-0.9481840133666992,-0.2769705057144165
2.56,0.05406057462096214,0.1501978635787964,0.10399337112903595,0.005459500011056662,-0.9411080479621887,-0.27721449732780457
2.58,0.028494983911514282,0.17256775498390198,0.0880148783326149,0.011315500363707542,-0.944767951965332,-0.2806609869003296
2.6,-0.004394086077809334,0.16404588520526886,0.06138405203819275,0.022783499211072922,-0.9484279751777649,-0.2787089943885803
2.62,-0.004394086077809334,0.12995843589305878,0.02836182899773121,0.03940599784255028,-0.9413520693778992,-0.2706265151500702
2.64,0.026364516466856003,0.11291470378637314,0.03262276202440262,0.04404200240969658,-0.9012749791145325,-0.260622501373291
2.66,0.12436595559120178,0.11397993564605713,0.08481918275356293,0.03818599879741669,-0.8641565442085266,-0.2596465051174164
2.68,0.19999749958515167,0.12995843589305878,0.1625811904668808,0.030378000810742378,-0.9181415438652039,-0.26623451709747314
2.7,0.20532366633415222,0.08322133123874664,0.20838621258735657,0.016927499324083328,-0.972370445728302,-0.28261297941207886
2.72,0.13927921652793884,0.12037133425474167,0.20199480652809143,-0.0009150000405497849,-0.9943609833717346,-0.27087050676345825
2.74,0.05406057462096214,0.10971900075674057,0.12529803812503815,-0.011163000017404556,-0.9738345146179199,-0.24692799150943756
2.76,-0.058720968663692474,-0.027562905102968216,-0.11757509410381317,0.06164050102233887,-1.0295275449752808,-0.2542785108089447
2.78,-0.10239552706480026,-0.08721595257520676,-0.2113156020641327,0.044530000537633896,-1.0329434871673584,-0.2747745215892792
2.8,0.03275591507554054,-0.0936073511838913,-0.04833494871854782,0.032085999846458435,-0.9894810318946838,-0.2806609869003296
2.82,0.27775952219963074,-0.030758604407310486,0.2796236574649811,0.014487499371170998,-0.8377739787101746,-0.2852970063686371
2.84,0.4013265371322632,-0.020106272771954536,0.37655988335609436,0.018391499295830727,-0.8106594681739807,-0.29554498195648193
2.86,0.39386990666389465,-0.044606633484363556,0.2987978756427765,0.05871250107884407,-0.9596824645996094,-0.2816369831562042
2.88,0.33102115988731384,-0.033954303711652756,0.22955772280693054,0.02302750013768673,-0.9391559958457947,-0.22887201607227325
2.9,0.2692376375198364,0.011850717477500439,0.1828206181526184,-0.001158999977633357,-0.9113094806671143,-0.2134695053100586
2.92,0.1872147023677826,-0.08402025699615479,-0.007856093347072601,0.00692349998280406,-1.0158635377883911,-0.21712949872016907
2.94,0.08282186836004257,-0.023301972076296806,-0.011051792651414871,-0.03315350040793419,-0.9498920440673828,-0.2559864819049835
2.96,0.14034445583820343,-0.009453942999243736,-0.04087831825017929,-0.05047749727964401,-0.9350079894065857,-0.23179998993873596
2.98,0.20319320261478424,-0.024367205798625946,-0.05792204663157463,-0.015554999932646751,-0.9679784774780273,-0.2611105144023895
3,0.21384553611278534,-0.047802332788705826,-0.09733566641807556,0.016927499324083328,-0.9887490272521973,-0.25525447726249695
3.02,0.15845340490341187,-0.05632419511675835,-0.08987903594970703,-0.001158999977633357,-1.0063170194625854,-0.24936801195144653
3.04,0.06364767253398895,-0.10212921351194382,-0.10905323177576065,0.01107150036841631,-1.0178154706954956,-0.24009600281715393
3.06,-0.13435252010822296,-0.08934641629457474,-0.1037270650267601,-0.022631000727415085,-1.0256235599517822,-0.23521599173545837
3.08,-0.15778763592243195,-0.060585130006074905,-0.1037270650267601,-0.01970299892127514,-0.937936007976532,-0.20834550261497498
3.1,-0.057655736804008484,-0.059519894421100616,-0.09094426780939102,0.009119500406086445,-0.9208254814147949,-0.2281399965286255
3.12,0.0061250897124409676,-0.10958584398031235,-0.09413997083902359,0.004239500034600496,-0.9604145288467407,-0.25403448939323425
3.14,0.08175663650035858,-0.1362166702747345,-0.10266183316707611,0.012047499418258667,-0.9537959694862366,-0.23228800296783447
3.16,0.13501828908920288,-0.14154283702373505,-0.06537867337465286,0.010095500387251377,-0.8687925338745117,-0.19660300016403198
3.18,-0.054460037499666214,-0.040345702320337296,-0.0504654161632061,0.013023500330746174,-0.9315919876098633,-0.22716400027275085
3.2,-0.23981058597564697,0.027829213067889214,-0.08029194176197052,-0.021654998883605003,-0.9838384985923767,-0.21786150336265564
3.22,-0.41237834095954895,0.3824186623096466,-0.10266183316707611,-0.04096150025725365,-1.0131795406341553,-0.20517349243164062
3.24,-0.9224917888641357,1.1535142660140991,-0.29866471886634827,-0.04071750119328499,-1.0244035720825195,-0.2420480102300644
3.26,-0.5615109801292419,0.47189822793006897,-0.1559234857559204,-0.03168949857354164,-0.9850584864616394,-0.18586701154708862
3.28,0.11584409326314926,0.05232957378029823,0.007057168986648321,0.035989999771118164,-0.9279015064239502,-0.20907750725746155
3.3,0.48761042952537537,-0.12023817747831345,0.03901416063308716,0.06700850278139114,-0.9425719976425171,-0.27968502044677734
3.32,0.5994598865509033,-0.2736317217350006,0.01664426550269127,0.05136200040578842,-0.914481520652771,-0.23936399817466736
3.34,0.4748276174068451,-0.33115431666374207,0.005991935729980469,0.02546750009059906,-0.9559919834136963,-0.204197496175766
3.36,0.22236739099025726,-0.22569625079631805,0.009187635034322739,-0.004575000144541264,-0.9731025695800781,-0.17244699597358704
3.38,0.05299534276127815,-0.13089050352573395,0.008122402243316174,-0.0038429999258369207,-0.960170567035675,-0.17488700151443481
3.4,-0.040612008422613144,-0.060585130006074905,-0.006790860556066036,-0.0038429999258369207,-0.960170567035675,-0.17488700151443481
3.42,-0.067242830991745,-0.027562905102968216,-0.014247491955757141,0.022783499211072922,-0.9782265424728394,-0.25354650616645813
3.44,-0.018242115154862404,-0.03288906812667847,-0.0185084231197834,0.024735501036047935,-0.9777385592460632,-0.2483920156955719
3.46,0.029560215771198273,-0.043541401624679565,-0.007856093347072601,0.022783499211072922,-0.9501360654830933,-0.21493349969387054
3.48,0.07749570161104202,-0.038215234875679016,0.03049229457974434,0.015951499342918396,-0.9430599808692932,-0.19172300398349762
3.5,0.0689738392829895,-0.03608476743102074,0.02729659713804722,0.015951499342918396,-0.9430599808692932,-0.19172300398349762
3.52,0.009320789016783237,-0.004127778112888336,0.004926702938973904,0.01277950033545494,-0.9687105417251587,-0.20444151759147644
3.54,-0.041677240282297134,0.021437814459204674,-0.02170412242412567,0.010095500387251377,-0.9875290393829346,-0.21615348756313324
3.56,-0.057655736804008484,0.022503048181533813,-0.04407401755452156,0.0064354995265603065,-0.9828625321388245,-0.21200551092624664
3.58,-0.037416309118270874,0.03528584539890289,-0.06324820965528488,0.003995500039309263,-0.9731025695800781,-0.19687749445438385
3.6,-0.024633513763546944,0.053394805639982224,-0.08455286920070648,0.01668350026011467,-0.9638304710388184,-0.20614950358867645
3.62,-0.017176883295178413,0.06298190355300903,-0.10159660130739212,0.017415501177310944,-0.9491599798202515,-0.20346549153327942
3.64,0.00399462366476655,0.04913387447595596,-0.10798799991607666,0.02424750104546547,-0.9362279772758484,-0.211029514670372
3.66,0.0370168462395668,0.034220609813928604,-0.0824224054813385,0.02424750104546547,-0.9362279772758484,-0.211029514670372
3.68,0.06364767253398895,0.034220609813928604,-0.04940018057823181,0.05062999948859215,-0.9342759847640991,-0.21883749961853027
3.7,0.07643046975135803,-0.012649642303586006,-0.006790860556066036,0.07408449798822403,-0.94623202085495,-0.2396080046892166
3.72,0.07856093347072601,-0.061650361865758896,0.03581846132874489,0.07628049701452255,-0.9513559937477112,-0.23521599173545837
3.74,0.07749570161104202,-0.08082455396652222,0.04966649040579796,0.07628049701452255,-0.9513559937477112,-0.23521599173545837
3.76,0.06045197322964668,-0.08508548885583878,0.05499265342950821,0.05038600042462349,-0.9694425463676453,-0.22838400304317474
3.78,0.008255556225776672,-0.0723026916384697,0.008122402243316174,0.037209998816251755,-0.9667584896087646,-0.22078950703144073
3.8,-0.0033288532868027687,-0.06697652488946915,-0.02489982172846794,0.032085999846458435,-0.9657825231552124,-0.22322949767112732
3.82,-0.018242115154862404,-0.06271559745073318,-0.02596505545079708,0.02546750009059906,-0.9628545045852661,-0.21883749961853027
3.84,-0.061916667968034744,-0.05312849581241608,-0.03768261894583702,0.03525800257921219,-0.9774945378303528,-0.21151749789714813
3.86,-0.28668084740638733,0.08535179495811462,-0.06005251035094261,0.0386740006506443,-0.9648065567016602,-0.20102550089359283
3.88,-0.3868127465248108,0.18322007358074188,-0.04087831825017929,0.03672200068831444,-0.9626104831695557,-0.18903900682926178
3.9,-0.3314206302165985,0.17363297939300537,-0.02596505545079708,0.03745400160551071,-0.9604145288467407,-0.18562299013137817
3.92,-0.18548369407653809,0.10545806586742401,-0.03555215150117874,0.03647800162434578,-0.966514527797699,-0.2054174840450287
3.94,-0.03209014609456062,-0.005193010903894901,-0.03342168778181076,0.030621998012065887,-0.9635864496231079,-0.21420150995254517
3.96,0.12010502070188522,-0.12982527911663055,-0.0238345880061388,0.027175499126315117,-0.9616345167160034,-0.2185935080051422
3.98,0.1861494779586792,-0.18415215611457825,-0.013182258233428001,0.03989399969577789,-0.9564799666404724,-0.2281399965286255
4,0.21491076052188873,-0.20652204751968384,-0.0003994623839389533,0.04379799962043762,-0.9423280358314514,-0.21151749789714813
4.02,0.2085193693637848,-0.19586972892284393,0.014513799920678139,0.043554000556468964,-0.9516000151634216,-0.20736949145793915
4.04,0.17123620212078094,-0.14899946749210358,0.01983996480703354,0.03818599879741669,-0.9579439759254456,-0.20395350456237793
4.06,0.12969212234020233,-0.1042596846818924,0.02197043038904667,0.03647800162434578,-0.9616345167160034,-0.20663751661777496
4.08,0.03169068321585655,-0.060585130006074905,0.013448567129671574,0.028669999912381172,-0.9757865071296692,-0.21786150336265564
4.1,-0.06830807030200958,-0.013714875094592571,0.005991935729980469,0.0340379998087883,-0.9860649704933167,-0.22127750515937805
4.12,-0.13435252010822296,0.007589785382151604,-0.0003994623839389533,0.030621998012065887,-0.9687105417251587,-0.20956549048423767
4.14,-0.16950520873069763,0.025698747485876083,-0.008921326138079166,0.03257400169968605,-0.9679784774780273,-0.2105415016412735
4.16,-0.1833532303571701,0.037416309118270874,-0.009986559860408306,0.034282002598047256,-0.9674904942512512,-0.21444550156593323
4.18,-0.1716356724500656,0.048068638890981674,0.000665770610794425,0.034282002598047256,-0.9689545631408691,-0.21420150995254517
4.2,-0.14607007801532745,0.04274247586727142,0.0038614696823060513,0.039650000631809235,-0.9660264849662781,-0.21493349969387054
4.22,-0.11517832428216934,0.025698747485876083,0.007057168986648321,0.032329998910427094,-0.9574559926986694,-0.216885507106781
4.24,-0.09280842542648315,0.010785484686493874,0.008122402243316174,0.03379400074481964,-0.9638304710388184,-0.22496800124645233
4.26,-0.05659050494432449,-0.016910573467612267,0.011318100616335869,0.03672200068831444,-0.9576999545097351,-0.23058000206947327
4.28,-0.060851436108350754,-0.0009320789249613881,0.009187635034322739,0.03672200068831444,-0.960170567035675,-0.22935999929904938
4.3,-0.0778951644897461,0.022503048181533813,0.012383334338665009,0.03257400169968605,-0.9564799666404724,-0.22200950980186462
4.32,-0.11624355614185333,0.043807707726955414,0.014513799920678139,0.03281800076365471,-0.9564799666404724,-0.22935999929904938
4.34,-0.14713531732559204,0.057655736804008484,0.01664426550269127,0.03623399883508682,-0.9503800272941589,-0.2349720001220703
4.36,-0.172700896859169,0.07150376588106155,0.02090519852936268,0.039650000631809235,-0.9555040001869202,-0.23350800573825836
4.38,-0.18122276663780212,0.09280842542648315,0.02410089783370495,0.037209998816251755,-0.9479399919509888,-0.234484001994133
4.4,-0.19080986082553864,0.0991998240351677,0.02410089783370495,0.03623399883508682,-0.9518439769744873,-0.2432679980993271
4.42,-0.19187510013580322,0.10239552706480026,0.03155753016471863,0.03623399883508682,-0.9469640254974365,-0.24692799150943756
4.44,-0.18548369407653809,0.10026505589485168,0.03688369318842888,0.033305998891592026,-0.9474520087242126,-0.2503439784049988
4.46,-0.1833532303571701,0.10545806586742401,0.04327509179711342,0.030621998012065887,-0.9442799687385559,-0.25525447726249695
4.48,-0.18122276663780212,0.10545806586742401,0.05712312087416649,0.033305998891592026,-0.9491599798202515,-0.2630625069141388
4.5,-0.17909230291843414,0.11184946447610855,0.05392742156982422,0.03501399978995323,-0.9418400526046753,-0.26330649852752686
4.52,-0.1737661361694336,0.12143656611442566,0.05179695412516594,0.03623399883508682,-0.9401319622993469,-0.263794481754303
4.54,-0.1631138026714325,0.1267627328634262,0.0454055592417717,0.041113998740911484,-0.9305854439735413,-0.2613545060157776
4.56,-0.151396244764328,0.13634982705116272,0.03368799388408661,0.04526200145483017,-0.9247294664382935,-0.26330649852752686
4.58,-0.1418091505765915,0.14167599380016327,0.015579032711684704,0.04257800057530403,-0.9176534414291382,-0.2647705078125
4.6,-0.1311568170785904,0.14593692123889923,0.01877473294734955,0.04257800057530403,-0.9176534414291382,-0.2647705078125
4.62,-0.13541774451732635,0.1501978635787964,0.01983996480703354,0.03794199973344803,-0.9164334535598755,-0.27257850766181946
4.64,-0.151396244764328,0.15339355170726776,0.02410089783370495,0.02891400083899498,-0.9110655188560486,-0.31241148710250854
4.66,-0.1631138026714325,0.15552401542663574,0.02090519852936268,0.028425998985767365,-0.9113094806671143,-0.33684200048446655
4.68,-0.16950520873069763,0.15765449404716492,0.011318100616335869,0.03916200250387192,-0.9181415438652039,-0.33464598655700684
4.7,-0.15885287523269653,0.17895914614200592,-0.01744319126009941,0.044773999601602554,-0.9372040629386902,-0.32973548769950867
4.72,-0.13541774451732635,0.18535055220127106,-0.03661738336086273,0.035746000707149506,-0.937936007976532,-0.3248555064201355
4.74,-0.09600412845611572,0.1800243854522705,-0.02703028731048107,0.03184200078248978,-0.9437919855117798,-0.3177794814109802
4.76,-0.09280842542648315,0.15552401542663574,-0.012117025442421436,0.024979500100016594,-0.9352520108222961,-0.32631948590278625
4.78,-0.09387365728616714,0.12463226169347763,0.014513799920678139,0.027175499126315117,-0.9259494543075562,-0.34269800782203674
4.8,-0.08854749798774719,0.11078423261642456,0.014513799920678139,0.024979500100016594,-0.922777533531189,-0.34220999479293823
4.82,-0.10346075892448425,0.09600412845611572,0.02303566411137581,0.036965999752283096,-0.9152135252952576,-0.33928200602531433
4.84,-0.10772168636322021,0.08854749798774719,0.02516612969338894,0.040869999676942825,-0.9247294664382935,-0.35196998715400696
4.86,-0.0981345921754837,0.08535179495811462,0.01983996480703354,0.0416020005941391,-0.9259494543075562,-0.34269800782203674
4.88,-0.08428656309843063,0.08535179495811462,0.02090519852936268,0.043554000556468964,-0.9281455278396606,-0.3331820070743561
4.9,-0.07043853402137756,0.08215609937906265,0.02516612969338894,0.03306199982762337,-0.914481520652771,-0.32631948590278625
4.92,-0.060851436108350754,0.07576470077037811,0.03688369318842888,0.03306199982762337,-0.914481520652771,-0.32631948590278625
4.94,-0.05978620424866676,0.07469946891069412,0.04327509179711342,0.024491500109434128,-0.9132614731788635,-0.3395259976387024
4.96,-0.057655736804008484,0.06511236727237701,0.0454055592417717,0.03013399988412857,-0.9210695028305054,-0.344650000333786
4.98,-0.06298190355300903,0.06298190355300903,0.04327509179711342,0.034282002598047256,-0.9276575446128845,-0.35148200392723083
5,-0.06511236727237701,0.05978620424866676,0.03155753016471863,0.040869999676942825,-0.9323239326477051,-0.34855398535728455
5.02,-0.066177599132061,0.05232957378029823,0.02516612969338894,0.04062599688768387,-0.9271695613861084,-0.3544100224971771
5.04,-0.060851436108350754,0.03954677656292915,0.015579032711684704,0.040869999676942825,-0.9335440397262573,-0.344650000333786
5.06,-0.06511236727237701,0.028894444927573204,0.012383334338665009,0.039650000631809235,-0.931835949420929,-0.3570939898490906
5.08,-0.06830807030200958,0.024633513763546944,0.015579032711684704,0.03550200164318085,-0.9252175092697144,-0.36371251940727234
5.1,-0.08215609937906265,0.004394086077809334,0.01664426550269127,0.037209998816251755,-0.9232655167579651,-0.3651764988899231
5.12,-0.0981345921754837,-0.013714875094592571,0.010252867825329304,0.04038200154900551,-0.9178975224494934,-0.36786049604415894
5.14,-0.10772168636322021,-0.021171506494283676,0.004926702938973904,0.045993998646736145,-0.912529468536377,-0.37078848481178284
5.16,-0.10985215753316879,-0.017975807189941406,-0.00359516148455441,0.03940599784255028,-0.9074054956436157,-0.37078848481178284
5.18,-0.10452599078416824,-0.022236740216612816,-0.013182258233428001,0.04257800057530403,-0.8995670080184937,-0.3656645119190216
5.2,-0.09600412845611572,-0.022236740216612816,-0.03022598661482334,0.04062599688768387,-0.8956630229949951,-0.3673724830150604
5.22,-0.09493889659643173,-0.024367205798625946,-0.04194355010986328,0.03550200164318085,-0.9012749791145325,-0.3656645119190216
5.24,-0.10133028775453568,-0.028628136962652206,-0.05579157918691635,0.03745400160551071,-0.904233455657959,-0.36834850907325745
5.26,-0.10559122264385223,-0.03288906812667847,-0.06963960826396942,0.03818599879741669,-0.9117974638938904,-0.3676165044307709
5.28,-0.10026505589485168,-0.041410934180021286,-0.08881380409002304,0.043554000556468964,-0.9066734910011292,-0.37298449873924255
5.3,-0.09174319356679916,-0.047802332788705826,-0.10053136944770813,0.04770199954509735,-0.904233455657959,-0.37347251176834106
5.32,-0.07043853402137756,-0.052063263952732086,-0.11970555782318115,0.03525800257921219,-0.906185507774353,-0.37249651551246643
5.34,-0.05978620424866676,-0.0712374597787857,-0.11864032596349716,0.04818999767303467,-0.9161894917488098,-0.38006049394607544
5.36,-0.05232957378029823,-0.0829550251364708,-0.11864032596349716,0.04428600147366524,-0.91862952709198,-0.37420448660850525
5.38,-0.04274247586727142,-0.08615072071552277,-0.10692276805639267,0.034282002598047256,-0.9183855652809143,-0.37249651551246643
5.4,-0.03528584539890289,-0.10212921351194382,-0.0930747389793396,0.03745400160551071,-0.9152135252952576,-0.38640451431274414
5.42,-0.04274247586727142,-0.1149120107293129,-0.07603100687265396,0.033305998891592026,-0.9169214963912964,-0.3854285180568695
5.44,-0.047003407031297684,-0.12130340933799744,-0.06857437640428543,0.03281800076365471,-0.9198495149612427,-0.38469648361206055
5.46,-0.047003407031297684,-0.1138467788696289,-0.06005251035094261,0.030621998012065887,-0.9096015095710754,-0.3854285180568695
5.48,-0.04274247586727142,-0.10106398165225983,-0.04513924941420555,0.021075500175356865,-0.895175039768219,-0.38054850697517395
5.5,-0.040612008422613144,-0.08721595257520676,-0.0238345880061388,0.009607499465346336,-0.8885869979858398,-0.38689249753952026
5.52,-0.037416309118270874,-0.06804175674915314,-0.008921326138079166,0.008143500424921513,-0.8766005039215088,-0.39399898052215576
5.54,-0.03209014609456062,-0.03928046673536301,0.007057168986648321,-0.0026229999493807554,-0.8876110315322876,-0.39302298426628113
5.56,-0.018242115154862404,-0.005193010903894901,0.02303566411137581,-0.010431000031530857,-0.8981029987335205,-0.3944869935512543
5.58,0.0007989247678779066,0.022503048181533813,0.03688369318842888,-0.006527000106871128,-0.9149695038795471,-0.38298851251602173
5.6,0.03914731368422508,0.051264338195323944,0.05499265342950821,-0.009455000050365925,-0.9396439790725708,-0.37835249304771423
5.62,0.0583215095102787,0.07363422960042953,0.05392742156982422,0.018391499295830727,-0.9576999545097351,-0.3676165044307709
5.64,0.08388710021972656,0.0874822586774826,0.03262276202440262,0.04257800057530403,-0.9391559958457947,-0.3468460142612457
5.66,0.11584409326314926,0.07363422960042953,0.015579032711684704,0.059688501060009,-0.9010310173034668,-0.33342599868774414
5.68,0.13821399211883545,0.047003407031297684,0.013448567129671574,0.06993649899959564,-0.871720552444458,-0.3336699903011322
5.7,0.1328878253698349,0.025698747485876083,0.009187635034322739,0.07823249697685242,-0.86342453956604,-0.34611400961875916
5.72,0.11477886140346527,0.013981183059513569,0.008122402243316174,0.0718884989619255,-0.8927350044250488,-0.3500180244445801
5.74,0.09986559301614761,0.013981183059513569,0.008122402243316174,0.06993649899959564,-0.9066734910011292,-0.344650000333786
5.76,0.10306129604578018,0.0033288532868027687,0.0027962366584688425,0.0684724971652031,-0.9183855652809143,-0.3390379846096039
5.78,0.12117026001214981,-0.014780107885599136,-0.014247491955757141,0.0684724971652031,-0.9183855652809143,-0.3390379846096039
5.8,0.14140968024730682,-0.020106272771954536,-0.03874785080552101,0.07042449712753296,-0.9074054956436157,-0.3331820070743561
5.82,0.16164910793304443,-0.031823836266994476,-0.05898727849125862,0.07994050532579422,-0.902006983757019,-0.33562198281288147
5.84,0.1968017965555191,-0.015845341607928276,-0.08774857223033905,0.0718884989619255,-0.9049655199050903,-0.33217552304267883
5.86,0.22023692727088928,-0.028628136962652206,-0.09627043455839157,0.07408449798822403,-0.9088694453239441,-0.33806201815605164
5.88,0.23195448517799377,-0.05312849581241608,-0.11224892735481262,0.07408449798822403,-0.9176534414291382,-0.3341580033302307
5.9,0.24473728239536285,-0.07336792349815369,-0.1250317245721817,0.07408449798822403,-0.9176534414291382,-0.3341580033302307
5.92,0.2607157826423645,-0.07549838721752167,-0.12929265201091766,0.06774049997329712,-0.9130174517631531,-0.29774099588394165
5.94,0.27882474660873413,-0.08188978582620621,-0.12929265201091766,0.0655445009469986,-0.9086254835128784,-0.2899329960346222
5.96,0.3246297538280487,-0.07975932210683823,-0.13355359435081482,0.06578850001096725,-0.9132614731788635,-0.28554099798202515
5.98,0.36404338479042053,-0.07443315535783768,-0.14314068853855133,0.07823249697685242,-0.9100895524024963,-0.27428650856018066
6,0.41410934925079346,-0.09147688746452332,-0.16551057994365692,0.0894870012998581,-0.9110655188560486,-0.2652585208415985
6.02,0.4524577260017395,-0.10532491654157639,-0.18681524693965912,0.09827099740505219,-0.9218014478683472,-0.24936801195144653
6.04,0.4940018057823181,-0.13408620655536652,-0.2113156020641327,0.10900700837373734,-0.9293654561042786,-0.234484001994133
6.06,0.5153064727783203,-0.17243459820747375,-0.22622886300086975,0.11782149970531464,-0.9333000183105469,-0.23106801509857178
6.08,0.5216978788375854,-0.2011958807706833,-0.2539249360561371,0.1331934928894043,-0.9340320229530334,-0.22347350418567657
6.1,0.5291544795036316,-0.25658801198005676,-0.28162097930908203,0.1454240083694458,-0.9374480247497559,-0.21542151272296906
6.12,0.524893581867218,-0.31304535269737244,-0.3359478712081909,0.1752225011587143,-0.9389119744300842,-0.20980948209762573
6.14,0.5142412185668945,-0.37589409947395325,-0.39440253376960754,0.20184899866580963,-0.9435479640960693,-0.20029349625110626
6.16,0.46950146555900574,-0.4419385492801666,-0.44872942566871643,0.2201794981956482,-0.9523320198059082,-0.20736949145793915
6.18,0.39600038528442383,-0.4866783320903778,-0.4732297658920288,0.2411634922027588,-0.9857904314994812,-0.23253199458122253
6.2,0.28521615266799927,-0.47176507115364075,-0.4636426866054535,0.21920350193977356,-1.0190354585647583,-0.260622501373291
6.22,0.13927921652793884,-0.3726983964443207,-0.4220985770225525,0.1916009932756424,-1.0634739398956299,-0.2625744938850403
6.24,0.0018641578499227762,-0.3151758313179016,-0.3828181326389313,0.1786385029554367,-1.069604516029358,-0.2745305001735687
6.26,-0.10772168636322021,-0.28854498267173767,-0.32209983468055725,0.17449051141738892,-1.047126054763794,-0.2500999867916107
6.28,-0.12263495475053787,-0.297066867351532,-0.2826862037181854,0.16521848738193512,-0.9567239880561829,-0.2181054949760437
6.3,-0.06937330216169357,-0.28961023688316345,-0.2539249360561371,0.17790649831295013,-0.9139935374259949,-0.20785750448703766
6.32,0.023168819025158882,-0.24913136661052704,-0.22303315997123718,0.17912650108337402,-0.8941989541053772,-0.1971215009689331
6.34,0.07643046975135803,-0.21397867798805237,-0.19640234112739563,0.16497449576854706,-0.908381462097168,-0.18977099657058716
6.36,0.08495233207941055,-0.16604319214820862,-0.15911918878555298,0.152988001704216,-0.9291214942932129,-0.19736550748348236
6.38,0.05299534276127815,-0.1031944528222084,-0.11544463038444519,0.15274399518966675,-0.9520879983901978,-0.2029774934053421
6.4,-0.005459319334477186,-0.041410934180021286,-0.07709623873233795,0.1559159904718399,-0.9628545045852661,-0.20273350179195404
6.42,-0.066177599132061,0.044872939586639404,-0.03235645219683647,0.16201600432395935,-0.961390495300293,-0.20736949145793915
6.44,-0.1300915777683258,0.11078423261642456,0.008122402243316174,0.17156249284744263,-0.965538501739502,-0.20395350456237793
6.46,-0.19080986082553864,0.16191542148590088,0.04327509179711342,0.17156249284744263,-0.965538501739502,-0.20395350456237793
6.48,-0.2685718834400177,0.21091613173484802,0.07949301600456238,0.1735145002603531,-0.9508680105209351,-0.20956549048423767
6.5,-0.32822492718696594,0.23222079873085022,0.0880148783326149,0.17741850018501282,-0.9491599798202515,-0.21590949594974518
6.52,-0.3889431953430176,0.24713405966758728,0.08694964647293091,0.18815450370311737,-0.9413520693778992,-0.22716400027275085
6.54,-0.469900906085968,0.27056917548179626,0.04966649040579796,0.23433150351047516,-0.9384239912033081,-0.2623305022716522
6.56,-0.5316844582557678,0.28228676319122314,-0.0003994623839389533,0.23433150351047516,-0.9384239912033081,-0.2623305022716522
6.58,-0.5647066831588745,0.2790910601615906,-0.08561810106039047,0.2895365059375763,-0.9452559351921082,-0.2640385031700134
6.6,-0.5412715077400208,0.29293906688690186,-0.1569887101650238,0.2895365059375763,-0.9452559351921082,-0.2640385031700134
6.62,-0.5146406888961792,0.25032976269721985,-0.1900109350681305,0.30957499146461487,-0.9833505153656006,-0.25818249583244324
6.64,-0.5806851387023926,0.1608501821756363,-0.14314068853855133,0.27047398686408997,-1.0268434286117554,-0.2870049774646759
6.66,-0.6348788738250732,0.09067796170711517,-0.04726971685886383,0.1886425018310547,-0.9875290393829346,-0.3307114839553833
6.68,-0.5508586168289185,0.004394086077809334,0.07097115367650986,0.1693664938211441,-0.9081375002861023,-0.2933489978313446
6.7,-0.39107367396354675,-0.027562905102968216,0.11571093648672104,0.18669049441814423,-0.8021195530891418,-0.230335995554924
6.72,-0.23235395550727844,-0.001997311832383275,0.12103710323572159,0.19404099881649017,-0.8360660076141357,-0.23472799360752106
6.74,-0.17057043313980103,0.024633513763546944,0.11571093648672104,0.19135700166225433,-0.8817550539970398,-0.26574650406837463
6.76,-0.18122276663780212,0.027829213067889214,0.10718907415866852,0.16912250220775604,-0.9139935374259949,-0.3004249930381775
6.78,-0.19613602757453918,0.025698747485876083,0.11251524090766907,0.15176799893379211,-0.9022509455680847,-0.31241148710250854
6.8,-0.19933173060417175,0.04593817517161369,0.12529803812503815,0.12806950509548187,-0.8824869990348816,-0.31533950567245483
6.82,-0.1407439112663269,0.10758853703737259,0.15405932068824768,0.11952950060367584,-0.8673285245895386,-0.30850750207901
6.84,-0.0555252730846405,0.16724158823490143,0.16577689349651337,0.11904150247573853,-0.8595204949378967,-0.2979849874973297
6.86,0.04234301298856735,0.21837277710437775,0.16897258162498474,0.11708950251340866,-0.8746484518051147,-0.29530099034309387
6.88,0.09773512929677963,0.256721168756485,0.17749445140361786,0.11318549513816833,-0.942084014415741,-0.30704349279403687
6.9,0.10412652790546417,0.26311254501342773,0.1934729516506195,0.1285575032234192,-0.9731025695800781,-0.31875550746917725
6.92,0.0689738392829895,0.2684387266635895,0.20306004583835602,0.16521848738193512,-0.9809104800224304,-0.3226594924926758
6.94,0.030625449493527412,0.256721168756485,0.17962491512298584,0.1757104992866516,-0.9303414821624756,-0.30997151136398315
6.96,0.011451254598796368,0.23861220479011536,0.15618979930877686,0.19135700166225433,-0.8976149559020996,-0.32290351390838623
6.98,-0.020372580736875534,0.19813334941864014,0.14660269021987915,0.19306500256061554,-0.8766005039215088,-0.3436740040779114
7,-0.0555252730846405,0.17256775498390198,0.15832026302814484,0.19745700061321259,-0.8829750418663025,-0.35733798146247864
7.02,-0.07576470077037811,0.16298064589500427,0.1625811904668808,0.19306500256061554,-0.8995670080184937,-0.36371251940727234
7.04,-0.0991998240351677,0.1384802907705307,0.15725502371788025,0.19306500256061554,-0.8995670080184937,-0.36371251940727234
7.06,-0.09280842542648315,0.13102366030216217,0.14660269021987915,0.17937050759792328,-0.912529468536377,-0.35904601216316223
7.08,-0.06830807030200958,0.11078423261642456,0.12849372625350952,0.16692650318145752,-0.9078934788703918,-0.34953001141548157
7.1,-0.044872939586639404,0.09174319356679916,0.12103710323572159,0.14908400177955627,-0.906185507774353,-0.3500180244445801
7.12,-0.033155377954244614,0.09067796170711517,0.12103710323572159,0.14908400177955627,-0.906185507774353,-0.3500180244445801
7.14,-0.017176883295178413,0.07256899774074554,0.1199718713760376,0.14322800934314728,-0.9000550508499146,-0.3546540141105652
7.16,-0.00226362026296556,0.06830807030200958,0.1199718713760376,0.13050949573516846,-0.9069175124168396,-0.34977400302886963
7.18,0.0007989247678779066,0.06830807030200958,0.11784140020608902,0.14322800934314728,-0.9132614731788635,-0.3400139808654785
7.2,-0.005459319334477186,0.07150376588106155,0.11145000159740448,0.14225199818611145,-0.9091135263442993,-0.3395259976387024
7.22,-0.016111649572849274,0.0778951644897461,0.09334104508161545,0.14591200649738312,-0.9117974638938904,-0.337086021900177
7.24,-0.023568280041217804,0.08854749798774719,0.07842778414487839,0.15030400454998016,-0.9091135263442993,-0.33855000138282776
7.26,-0.04274247586727142,0.09387365728616714,0.06777545064687729,0.1449359953403473,-0.9047214388847351,-0.3458700180053711
7.28,-0.06298190355300903,0.09706936031579971,0.06351451575756073,0.14591200649738312,-0.8995670080184937,-0.3512380123138428
7.3,-0.07896039634943008,0.08428656309843063,0.06244928762316704,0.14444799721240997,-0.9015190005302429,-0.3512380123138428
7.32,-0.07150376588106155,0.07256899774074554,0.05925358831882477,0.14273999631404877,-0.9071614742279053,-0.34782201051712036
7.34,-0.06404713541269302,0.053394805639982224,0.05286218971014023,0.14615599811077118,-0.9093575477600098,-0.3522140085697174
7.36,-0.053394805639982224,0.027829213067889214,0.04007939249277115,0.14859600365161896,-0.9139935374259949,-0.3558740019798279
7.38,-0.03848154470324516,0.00226362026296556,0.03262276202440262,0.14786399900913239,-0.9117974638938904,-0.3544100224971771
7.4,-0.028894444927573204,-0.016910573467612267,0.03049229457974434,0.14737600088119507,-0.9091135263442993,-0.356361985206604
7.42,-0.019307348877191544,-0.031823836266994476,0.02836182899773121,0.14176400005817413,-0.9027389883995056,-0.34904199838638306
7.44,-0.010785484686493874,-0.03928046673536301,0.01983996480703354,0.14225199818611145,-0.8990790247917175,-0.3483099937438965
7.46,-0.007589785382151604,-0.041410934180021286,0.015579032711684704,0.1420080065727234,-0.906185507774353,-0.34953001141548157
7.48,-0.019307348877191544,-0.047802332788705826,0.014513799920678139,0.1378600001335144,-0.9000550508499146,-0.3534339964389801
7.5,-0.021437814459204674,-0.048867564648389816,0.011318100616335869,0.13099749386310577,-0.9015190005302429,-0.3522140085697174
7.52,-0.023568280041217804,-0.059519894421100616,0.01770949922502041,0.13099749386310577,-0.906185507774353,-0.3522140085697174
7.54,-0.03209014609456062,-0.058454662561416626,0.01664426550269127,0.12245749682188034,-0.899323046207428,-0.3546540141105652
7.56,-0.03209014609456062,-0.048867564648389816,0.02090519852936268,0.1214815080165863,-0.8981029987335205,-0.34733399748802185
7.58,-0.031024912372231483,-0.028628136962652206,0.03581846132874489,0.1168454959988594,-0.9049655199050903,-0.3522140085697174
7.6,-0.029959678649902344,-0.017975807189941406,0.04434032365679741,0.12050550431013107,-0.9071614742279053,-0.34269800782203674
7.62,-0.010785484686493874,-0.008388710208237171,0.04860125854611397,0.11830950528383255,-0.9122855067253113,-0.33464598655700684
7.64,0.012516488321125507,0.0011983871227130294,0.04327509179711342,0.12416550517082214,-0.9220454692840576,-0.32924750447273254
7.66,0.029560215771198273,0.00226362026296556,0.03794892504811287,0.12416550517082214,-0.9220454692840576,-0.32924750447273254
7.68,0.05193011090159416,-0.008388710208237171,0.04220985993742943,0.11172150820493698,-0.9210695028305054,-0.33928200602531433
7.7,0.05619104206562042,-0.024367205798625946,0.05499265342950821,0.11123350262641907,-0.9178975224494934,-0.3487979769706726
7.72,0.05406057462096214,-0.040345702320337296,0.07416684925556183,0.11318549513816833,-0.9139935374259949,-0.3602660000324249
7.74,0.04660394415259361,-0.042476166039705276,0.08375394344329834,0.11489349603652954,-0.9120414853096008,-0.3622484803199768
7.76,0.04127778112888336,-0.026497671380639076,0.08481918275356293,0.11489349603652954,-0.9120414853096008,-0.3622484803199768
7.78,0.04553871229290962,-0.0030625448562204838,0.08694964647293091,0.1105014979839325,-0.9078934788703918,-0.35319000482559204
7.8,0.04340824484825134,0.007589785382151604,0.08588441461324692,0.11123350262641907,-0.903471052646637,-0.3463580012321472
7.82,0.04660394415259361,0.017176883295178413,0.07523208111524582,0.11416149884462357,-0.9037150144577026,-0.34855398535728455
7.84,0.04553871229290962,0.029959678649902344,0.07097115367650986,0.1139175072312355,-0.9064295291900635,-0.34513798356056213
7.86,0.03914731368422508,0.041677240282297134,0.06884068250656128,0.11586949974298477,-0.9096015095710754,-0.3500180244445801
7.88,0.03169068321585655,0.043807707726955414,0.0667102187871933,0.11489349603652954,-0.9157015085220337,-0.34782201051712036
7.9,0.030625449493527412,0.03954677656292915,0.06351451575756073,0.11660150438547134,-0.908381462097168,-0.35319000482559204
7.92,0.03488638252019882,0.031024912372231483,0.05818835273385048,0.11879750341176987,-0.9113094806671143,-0.3441619873046875
7.94,0.03488638252019882,0.027829213067889214,0.05392742156982422,0.12245749682188034,-0.9113094806671143,-0.3434300124645233
7.96,0.03275591507554054,0.016111649572849274,0.04753602296113968,0.11879750341176987,-0.9127734899520874,-0.33733001351356506
7.98,0.030625449493527412,0.009720250964164734,0.04114462435245514,0.11757749319076538,-0.9122855067253113,-0.34513798356056213
8,0.029560215771198273,0.005459319334477186,0.03901416063308716,0.11196549981832504,-0.9130174517631531,-0.3395259976387024
8.02,0.023168819025158882,0.007589785382151604,0.02729659713804722,0.11489349603652954,-0.9157015085220337,-0.34440597891807556
8.04,0.024234050884842873,0.011850717477500439,0.01770949922502041,0.11489349603652954,-0.9169214963912964,-0.3436740040779114
8.06,0.027429750189185143,0.015046416781842709,0.0038614696823060513,0.11611350625753403,-0.9110655188560486,-0.34099000692367554
8.08,0.021038351580500603,0.016111649572849274,-0.0014646954368799925,0.11269749701023102,-0.9120414853096008,-0.3453820049762726
8.1,0.013581721112132072,0.025698747485876083,-0.006790860556066036,0.10976950079202652,-0.9110655188560486,-0.34513798356056213
8.12,-0.0001331541279796511,0.029959678649902344,-0.009986559860408306,0.11196549981832504,-0.9200934767723083,-0.3458700180053711
8.14,-0.016111649572849274,0.03528584539890289,-0.013182258233428001,0.11123350262641907,-0.9235095381736755,-0.3463580012321472
8.16,-0.026763979345560074,0.048068638890981674,-0.02063889056444168,0.10851900279521942,-0.9205814599990845,-0.33217552304267883
8.18,-0.025698747485876083,0.05232957378029823,-0.02596505545079708,0.11001349240541458,-0.9196054935455322,-0.3390379846096039
8.2,-0.036351077258586884,0.06404713541269302,-0.03022598661482334,0.1092815026640892,-0.9178975224494934,-0.34269800782203674
8.22,-0.03528584539890289,0.06404713541269302,-0.02809552103281021,0.11123350262641907,-0.9178975224494934,-0.3378179967403412
8.24,-0.03954677656292915,0.06830807030200958,-0.02916075475513935,0.11464949697256088,-0.9176534414291382,-0.3395259976387024
8.26,-0.036351077258586884,0.067242830991745,-0.03022598661482334,0.11464949697256088,-0.9176534414291382,-0.3395259976387024
8.28,-0.03528584539890289,0.06298190355300903,-0.03235645219683647,0.11733350157737732,-0.908381462097168,-0.3299795091152191
8.3,-0.034220609813928604,0.06511236727237701,-0.02596505545079708,0.12343350052833557,-0.9152135252952576,-0.3348900079727173
8.32,-0.041677240282297134,0.06511236727237701,-0.02703028731048107,0.12343350052833557,-0.9152135252952576,-0.3348900079727173
8.34,-0.043807707726955414,0.06298190355300903,-0.02596505545079708,0.11904150247573853,-0.9191175103187561,-0.33806201815605164
8.36,-0.043807707726955414,0.066177599132061,-0.02596505545079708,0.11782149970531464,-0.9196054935455322,-0.3324195146560669
8.38,-0.041677240282297134,0.057655736804008484,-0.02703028731048107,0.12392149865627289,-0.9130174517631531,-0.32924750447273254
8.4,-0.03848154470324516,0.05659050494432449,-0.02703028731048107,0.12709349393844604,-0.9132614731788635,-0.33342599868774414
8.42,-0.031024912372231483,0.053394805639982224,-0.02916075475513935,0.12538550794124603,-0.9130174517631531,-0.33635398745536804
8.44,-0.031024912372231483,0.053394805639982224,-0.02276935614645481,0.12392149865627289,-0.9142375588417053,-0.3400139808654785
8.46,-0.03848154470324516,0.047003407031297684,-0.02063889056444168,0.12953349947929382,-0.9142375588417053,-0.33733001351356506
8.48,-0.03848154470324516,0.043807707726955414,-0.02703028731048107,0.13124150037765503,-0.9139935374259949,-0.33464598655700684
8.5,-0.031024912372231483,0.03954677656292915,-0.02809552103281021,0.13294950127601624,-0.9108214974403381,-0.33928200602531433
8.52,-0.031024912372231483,0.03528584539890289,-0.02703028731048107,0.1314854919910431,-0.9100895524024963,-0.3344019949436188
8.54,-0.027829213067889214,0.027829213067889214,-0.02276935614645481,0.13883599638938904,-0.9127734899520874,-0.3400139808654785
8.56,-0.025698747485876083,0.023568280041217804,-0.0238345880061388,0.13587749004364014,-0.9066734910011292,-0.3412339985370636
8.58,-0.021437814459204674,0.021437814459204674,-0.02276935614645481,0.13465750217437744,-0.9159454703330994,-0.344650000333786
8.6,-0.021437814459204674,0.010785484686493874,-0.0238345880061388,0.13465750217437744,-0.9159454703330994,-0.344650000333786
8.62,-0.017176883295178413,0.0033288532868027687,-0.02276935614645481,0.13514550030231476,-0.9142375588417053,-0.3375740051269531
8.64,-0.018242115154862404,-0.0009320789249613881,-0.02809552103281021,0.13514550030231476,-0.9142375588417053,-0.3375740051269531
8.66,-0.018242115154862404,-0.006258244160562754,-0.02276935614645481,0.13514550030231476,-0.9169214963912964,-0.337086021900177
8.68,-0.016111649572849274,-0.008388710208237171,-0.02489982172846794,0.1331934928894043,-0.9093575477600098,-0.3429419994354248
8.7,-0.016111649572849274,-0.005193010903894901,-0.02276935614645481,0.1395680010318756,-0.9088694453239441,-0.3424540162086487
8.72,-0.022503048181533813,-0.009453942999243736,-0.0238345880061388,0.13663999736309052,-0.910333514213562,-0.3458700180053711
8.74,-0.024633513763546944,-0.011584409512579441,-0.03022598661482334,0.1442040055990219,-0.9096015095710754,-0.34147801995277405
8.76,-0.021437814459204674,-0.015845341607928276,-0.03022598661482334,0.14152000844478607,-0.9115535020828247,-0.3458700180053711
8.78,-0.022503048181533813,-0.016910573467612267,-0.03448691964149475,0.13688400387763977,-0.9108214974403381,-0.34782201051712036
8.8,-0.024633513763546944,-0.022236740216612816,-0.03129122033715248,0.14688800275325775,-0.9071614742279053,-0.3529459834098816
8.82,-0.026763979345560074,-0.026497671380639076,-0.02916075475513935,0.13859198987483978,-0.9093575477600098,-0.35367798805236816
8.84,-0.029959678649902344,-0.035019535571336746,-0.03235645219683647,0.14640000462532043,-0.9147255420684814,-0.3534339964389801
8.86,-0.033155377954244614,-0.045671865344047546,-0.03661738336086273,0.14883999526500702,-0.9110655188560486,-0.3448939919471741
8.88,-0.024633513763546944,-0.052063263952732086,-0.04087831825017929,0.1466439962387085,-0.9066734910011292,-0.3434300124645233
8.9,-0.013981183059513569,-0.054193731397390366,-0.04087831825017929,0.14347200095653534,-0.9059415459632874,-0.34440597891807556
8.92,-0.017176883295178413,-0.06378082931041718,-0.04087831825017929,0.14054399728775024,-0.906185507774353,-0.35074999928474426
8.94,-0.019307348877191544,-0.07017222791910172,-0.03874785080552101,0.14273999631404877,-0.9074054956436157,-0.3539220094680786
8.96,-0.021437814459204674,-0.06910699605941772,-0.03768261894583702,0.13810399174690247,-0.9059415459632874,-0.3544100224971771
8.98,-0.017176883295178413,-0.06804175674915314,-0.03768261894583702,0.1349014937877655,-0.9032270312309265,-0.35196998715400696
9,-0.015046416781842709,-0.06804175674915314,-0.039813082665205,0.13883599638938904,-0.9027389883995056,-0.35319000482559204
9.02,-0.010785484686493874,-0.059519894421100616,-0.03874785080552101,0.1390800029039383,-0.9044774770736694,-0.34782201051712036
9.04,-0.004394086077809334,-0.04993279650807381,-0.04194355010986328,0.13663999736309052,-0.9037150144577026,-0.34953001141548157
9.06,-0.005459319334477186,-0.041410934180021286,-0.03448691964149475,0.1361214965581894,-0.9066734910011292,-0.3480660021305084
9.08,-0.004394086077809334,-0.035019535571336746,-0.02916075475513935,0.13294950127601624,-0.9064295291900635,-0.3509940207004547
9.1,-0.0033288532868027687,-0.030758604407310486,-0.02276935614645481,0.13563349843025208,-0.9066734910011292,-0.3544100224971771
9.12,-0.0001331541279796511,-0.029693370684981346,-0.02703028731048107,0.13688400387763977,-0.9024949669837952,-0.35026201605796814
9.14,0.0018641578499227762,-0.015845341607928276,-0.0238345880061388,0.14005599915981293,-0.9044774770736694,-0.3468460142612457
9.16,0.00399462366476655,-0.011584409512579441,-0.0238345880061388,0.1420080065727234,-0.9024949669837952,-0.3517259955406189
9.18,0.002929390873759985,-0.012649642303586006,-0.02276935614645481,0.13810399174690247,-0.9069175124168396,-0.3512380123138428
9.2,-0.0011983871227130294,-0.0009320789249613881,-0.01637795753777027,0.14176400005817413,-0.9056975245475769,-0.3580699861049652
9.22,-0.0011983871227130294,0.0001331541279796511,-0.0185084231197834,0.14298400282859802,-0.9037150144577026,-0.35319000482559204
9.24,0.002929390873759985,0.006524552125483751,-0.014247491955757141,0.140299990773201,-0.904233455657959,-0.35538601875305176
9.26,-0.0033288532868027687,0.008655018173158169,-0.013182258233428001,0.14859600365161896,-0.9069175124168396,-0.35880202054977417
9.28,-0.011850717477500439,0.011850717477500439,-0.009986559860408306,0.14591200649738312,-0.9071614742279053,-0.360540509223938
9.3,-0.013981183059513569,0.015046416781842709,-0.011051792651414871,0.140299990773201,-0.903471052646637,-0.36002200841903687
9.32,-0.009720250964164734,0.019307348877191544,-0.0014646954368799925,0.14322800934314728,-0.9022509455680847,-0.3585579991340637
9.34,-0.008655018173158169,0.022503048181533813,-0.0014646954368799925,0.14322800934314728,-0.9022509455680847,-0.3585579991340637
9.36,-0.006524552125483751,0.029959678649902344,0.000665770610794425,0.14566799998283386,-0.9024949669837952,-0.36078450083732605
9.38,-0.009720250964164734,0.025698747485876083,-0.0014646954368799925,0.14298400282859802,-0.8983469605445862,-0.35831400752067566
9.4,-0.011850717477500439,0.021437814459204674,0.0027962366584688425,0.14688800275325775,-0.9032270312309265,-0.3615165054798126
9.42,-0.011850717477500439,0.021437814459204674,0.004926702938973904,0.1471319943666458,-0.9049655199050903,-0.3592900037765503
9.44,-0.012915950268507004,0.015046416781842709,0.007057168986648321,0.14566799998283386,-0.9037150144577026,-0.35782599449157715
9.46,-0.010785484686493874,0.016111649572849274,0.008122402243316174,0.14908400177955627,-0.9032270312309265,-0.360540509223938
9.48,-0.009720250964164734,0.017176883295178413,0.013448567129671574,0.1483519971370697,-0.9005430340766907,-0.3610284924507141
9.5,-0.012915950268507004,0.012915950268507004,0.008122402243316174,0.15079200267791748,-0.9039894938468933,-0.35953399538993835
9.52,-0.011850717477500439,0.008655018173158169,0.007057168986648321,0.14859600365161896,-0.8995670080184937,-0.36002200841903687
9.54,-0.013981183059513569,0.008655018173158169,0.011318100616335869,0.14859600365161896,-0.8995670080184937,-0.36002200841903687
9.56,-0.010785484686493874,0.010785484686493874,0.008122402243316174,0.14908400177955627,-0.9010310173034668,-0.3592900037765503
9.58,-0.007589785382151604,0.011850717477500439,0.009187635034322739,0.1437160074710846,-0.9027389883995056,-0.35904601216316223
9.6,-0.012915950268507004,0.007589785382151604,0.010252867825329304,0.15225601196289062,-0.8998110294342041,-0.3575820028781891
9.62,-0.007589785382151604,0.005459319334477186,0.0038614696823060513,0.1466439962387085,-0.9007869958877563,-0.35904601216316223
9.64,-0.008655018173158169,0.009720250964164734,0.004926702938973904,0.1495719999074936,-0.902006983757019,-0.3622484803199768
9.66,-0.011850717477500439,0.005459319334477186,0.007057168986648321,0.1495719999074936,-0.902006983757019,-0.3622484803199768
9.68,-0.007589785382151604,0.0033288532868027687,0.010252867825329304,0.14737600088119507,-0.9012749791145325,-0.3602660000324249
9.7,-0.0011983871227130294,0.0033288532868027687,0.007057168986648321,0.15274399518966675,-0.9052095413208008,-0.36493250727653503
9.72,-0.004394086077809334,0.00226362026296556,0.004926702938973904,0.14932799339294434,-0.8971269726753235,-0.36590850353240967
9.74,-0.0033288532868027687,-0.0009320789249613881,0.0038614696823060513,0.14762000739574432,-0.8968830108642578,-0.3663964867591858
9.76,-0.0001331541279796511,0.004394086077809334,0.005991935729980469,0.14762000739574432,-0.9005430340766907,-0.36249250173568726
9.78,0.0018641578499227762,-0.004127778112888336,0.008122402243316174,0.14859600365161896,-0.9027389883995056,-0.35904601216316223
9.8,0.002929390873759985,0.0001331541279796511,0.009187635034322739,0.15030400454998016,-0.9017629623413086,-0.3585579991340637
9.82,0.009320789016783237,-0.001997311832383275,0.005991935729980469,0.15103599429130554,-0.8981029987335205,-0.3570939898490906
9.84,0.011451254598796368,0.0001331541279796511,0.007057168986648321,0.15323199331760406,-0.8966389894485474,-0.36371251940727234
9.86,0.010386021807789803,-0.0009320789249613881,0.004926702938973904,0.14737600088119507,-0.9005430340766907,-0.35880202054977417
9.88,0.008255556225776672,0.0001331541279796511,0.004926702938973904,0.15030400454998016,-0.9002990126609802,-0.3575820028781891
9.9,0.00719032296910882,0.00226362026296556,0.007057168986648321,0.15030400454998016,-0.9002990126609802,-0.3575820028781891
9.92,0.011451254598796368,0.00226362026296556,0.009187635034322739,0.14737600088119507,-0.9012749791145325,-0.36200448870658875
9.94,0.013581721112132072,0.004394086077809334,0.010252867825329304,0.14859600365161896,-0.9022509455680847,-0.36078450083732605
9.96,0.014646953903138638,0.005459319334477186,0.013448567129671574,0.14469200372695923,-0.9012749791145325,-0.3615165054798126
9.98,0.013581721112132072,0.004394086077809334,0.01664426550269127,0.14859600365161896,-0.9032270312309265,-0.360540509223938
10,0.018907885998487473,0.008655018173158169,0.01770949922502041,0.14444799721240997,-0.8976149559020996,-0.35538601875305176
10.02,0.019973119720816612,0.012915950268507004,0.01664426550269127,0.14444799721240997,-0.8976149559020996,-0.35538601875305176
10.04,0.022103585302829742,0.019307348877191544,0.02090519852936268,0.14566799998283386,-0.8990790247917175,-0.36493250727653503
10.06,0.024234050884842873,0.022503048181533813,0.02197043038904667,0.14908400177955627,-0.8998110294342041,-0.364688515663147
10.08,0.023168819025158882,0.021437814459204674,0.02197043038904667,0.14298400282859802,-0.8998110294342041,-0.35904601216316223
10.1,0.022103585302829742,0.023568280041217804,0.02303566411137581,0.14737600088119507,-0.899323046207428,-0.3575820028781891
10.12,0.019973119720816612,0.022503048181533813,0.02303566411137581,0.15323199331760406,-0.8995670080184937,-0.36420050263404846
10.14,0.017842652276158333,0.024633513763546944,0.02410089783370495,0.14981600642204285,-0.9010310173034668,-0.3597780168056488
10.16,0.021038351580500603,0.018242115154862404,0.02303566411137581,0.14786399900913239,-0.8995670080184937,-0.3639565110206604
10.18,0.017842652276158333,0.021437814459204674,0.02516612969338894,0.15176799893379211,-0.9005430340766907,-0.3644444942474365
10.2,0.023168819025158882,0.018242115154862404,0.02410089783370495,0.14908400177955627,-0.8954190015792847,-0.35880202054977417
10.22,0.023168819025158882,0.019307348877191544,0.02729659713804722,0.15201200544834137,-0.8985909819602966,-0.36127251386642456
10.24,0.017842652276158333,0.017176883295178413,0.02516612969338894,0.15030400454998016,-0.8995670080184937,-0.36200448870658875
10.26,0.016777420416474342,0.015046416781842709,0.0347532257437706,0.14640000462532043,-0.8998110294342041,-0.3597780168056488
10.28,0.024234050884842873,0.018242115154862404,0.03688369318842888,0.14640000462532043,-0.9005430340766907,-0.35782599449157715
10.3,0.027429750189185143,0.018242115154862404,0.03581846132874489,0.14908400177955627,-0.9012749791145325,-0.3597780168056488
10.32,0.019973119720816612,0.018242115154862404,0.03688369318842888,0.15201200544834137,-0.8990790247917175,-0.36078450083732605
10.34,0.009320789016783237,0.022503048181533813,0.03688369318842888,0.14298400282859802,-0.9032270312309265,-0.36371251940727234
10.36,0.00719032296910882,0.018242115154862404,0.03368799388408661,0.1471319943666458,-0.9059415459632874,-0.356361985206604
10.38,0.002929390873759985,0.023568280041217804,0.03581846132874489,0.14688800275325775,-0.9069175124168396,-0.3634684979915619
10.4,-0.0011983871227130294,0.025698747485876083,0.03688369318842888,0.13859198987483978,-0.9029829502105713,-0.3644444942474365
10.42,0.00399462366476655,0.029959678649902344,0.04647079110145569,0.1437160074710846,-0.9015190005302429,-0.3610284924507141
10.44,0.0050598569214344025,0.027829213067889214,0.05392742156982422,0.14103201031684875,-0.9049655199050903,-0.35367798805236816
10.46,0.00719032296910882,0.027829213067889214,0.0560578890144825,0.13688400387763977,-0.9120414853096008,-0.3544100224971771
10.48,0.0061250897124409676,0.028894444927573204,0.05392742156982422,0.13343749940395355,-0.9105775356292725,-0.3448939919471741
10.5,0.011451254598796368,0.03209014609456062,0.06351451575756073,0.1302655041217804,-0.9076494574546814,-0.34977400302886963
10.52,0.011451254598796368,0.029959678649902344,0.06564498692750931,0.13099749386310577,-0.9069175124168396,-0.35074999928474426
10.54,0.008255556225776672,0.029959678649902344,0.07310161739587784,0.12928949296474457,-0.9093575477600098,-0.3453820049762726
10.56,0.00719032296910882,0.029959678649902344,0.0773625448346138,0.12928949296474457,-0.9093575477600098,-0.3453820049762726
10.58,0.014646953903138638,0.036351077258586884,0.07416684925556183,0.12074949592351913,-0.9169214963912964,-0.32924750447273254
10.6,0.03914731368422508,0.03528584539890289,0.07629731297492981,0.12001749873161316,-0.9220454692840576,-0.3248555064201355
10.62,0.05086487531661987,0.03954677656292915,0.08055824786424637,0.1180654987692833,-0.9249734878540039,-0.3168034851551056
10.64,0.06471290439367294,0.027829213067889214,0.08162347972393036,0.11342950165271759,-0.9305854439735413,-0.3155834972858429
10.66,0.07216953486204147,0.016111649572849274,0.08375394344329834,0.11245349794626236,-0.9418400526046753,-0.3055489957332611
10.68,0.08282186836004257,0.008655018173158169,0.08268871158361435,0.11074550449848175,-0.9467200040817261,-0.2996929883956909
10.7,0.09453943371772766,0.004394086077809334,0.08375394344329834,0.11489349603652954,-0.9398880004882812,-0.2972530126571655
10.72,0.10306129604578018,-0.001997311832383275,0.08375394344329834,0.11489349603652954,-0.9398880004882812,-0.2972530126571655
10.74,0.09986559301614761,-0.004127778112888336,0.07416684925556183,0.10607899725437164,-0.9445239901542664,-0.30530500411987305
10.76,0.08921326696872711,-0.0009320789249613881,0.06351451575756073,0.10607899725437164,-0.9445239901542664,-0.30530500411987305
10.78,0.08388710021972656,-0.001997311832383275,0.06031882017850876,0.10388299822807312,-0.9408639669418335,-0.31167951226234436
10.8,0.07536523789167404,-0.007323476951569319,0.05073172226548195,0.10266300290822983,-0.9367160201072693,-0.2972530126571655
10.82,0.07003907114267349,-0.008388710208237171,0.04220985993742943,0.09558700025081635,-0.9188735485076904,-0.3067995011806488
10.84,0.06364767253398895,-0.012649642303586006,0.02942706272006035,0.09924700111150742,-0.9139935374259949,-0.3033529818058014
10.86,0.06577813625335693,-0.010519175790250301,0.01770949922502041,0.09924700111150742,-0.9139935374259949,-0.3033529818058014
10.88,0.06471290439367294,-0.008388710208237171,-0.0014646954368799925,0.10071099549531937,-0.9159454703330994,-0.2874930202960968
10.9,0.05938674136996269,-0.010519175790250301,-0.011051792651414871,0.09827099740505219,-0.91862952709198,-0.2950569987297058
10.92,0.05619104206562042,-0.010519175790250301,-0.015312724746763706,0.09827099740505219,-0.91862952709198,-0.2950569987297058
10.94,0.04660394415259361,-0.012649642303586006,-0.01744319126009941,0.09851499646902084,-0.9293654561042786,-0.2940810024738312
10.96,0.030625449493527412,-0.020106272771954536,-0.02489982172846794,0.0929030030965805,-0.9242414832115173,-0.29774099588394165
10.98,0.025299284607172012,-0.023301972076296806,-0.02703028731048107,0.09387899935245514,-0.9235095381736755,-0.2874930202960968
11,0.03382114693522453,-0.030758604407310486,-0.02916075475513935,0.09656299650669098,-0.9237534999847412,-0.2857849895954132
11.02,0.03808208182454109,-0.03288906812667847,-0.03022598661482334,0.09436699748039246,-0.9291214942932129,-0.2938370108604431
11.04,0.03914731368422508,-0.035019535571336746,-0.03235645219683647,0.09509900212287903,-0.9357399940490723,-0.2962770164012909
11.06,0.029560215771198273,-0.042476166039705276,-0.03661738336086273,0.09509900212287903,-0.9357399940490723,-0.2962770164012909
11.08,0.022103585302829742,-0.047802332788705826,-0.03555215150117874,0.09534300118684769,-0.9455000758171082,-0.2972530126571655
11.1,0.013581721112132072,-0.054193731397390366,-0.03022598661482334,0.0929030030965805,-0.9435479640960693,-0.2926170229911804
11.12,0.017842652276158333,-0.057389430701732635,-0.02703028731048107,0.08631499856710434,-0.9305854439735413,-0.2984730005264282
11.14,0.013581721112132072,-0.06378082931041718,-0.02703028731048107,0.086558997631073,-0.9264375567436218,-0.2962770164012909
11.16,0.011451254598796368,-0.054193731397390366,-0.02596505545079708,0.08875499665737152,-0.9181415438652039,-0.29481300711631775
11.18,0.010386021807789803,-0.047802332788705826,-0.03235645219683647,0.08631499856710434,-0.9171654582023621,-0.2887130081653595
11.2,0.010386021807789803,-0.04673709720373154,-0.03022598661482334,0.0929030030965805,-0.9122855067253113,-0.2879810035228729
11.22,0.014646953903138638,-0.03608476743102074,-0.02809552103281021,0.09143900126218796,-0.9117974638938904,-0.2794409990310669
11.24,0.016777420416474342,-0.031823836266994476,-0.01637795753777027,0.09095099568367004,-0.9178975224494934,-0.2818810045719147
11.26,0.011451254598796368,-0.024367205798625946,-0.0014646954368799925,0.08631499856710434,-0.9222895503044128,-0.27968502044677734
11.28,0.00399462366476655,-0.016910573467612267,-0.0014646954368799925,0.08899899572134018,-0.942084014415741,-0.2950569987297058
11.3,-0.006524552125483751,-0.006258244160562754,-0.008921326138079166,0.1004670038819313,-0.9645625352859497,-0.3092394769191742
11.32,-0.015046416781842709,0.00226362026296556,-0.01957365684211254,0.11001349240541458,-0.9757865071296692,-0.30115699768066406
11.34,-0.005459319334477186,0.007589785382151604,-0.0238345880061388,0.09534300118684769,-0.9633424878120422,-0.28724899888038635
11.36,0.016777420416474342,0.0001331541279796511,-0.014247491955757141,0.08704700320959091,-0.9513559937477112,-0.2811489999294281
11.38,0.0370168462395668,-0.005193010903894901,0.009187635034322739,0.08729100227355957,-0.9323239326477051,-0.2781904935836792
11.4,0.04340824484825134,-0.001997311832383275,0.013448567129671574,0.09192699939012527,-0.9135055541992188,-0.27428650856018066
11.42,0.04127778112888336,0.011850717477500439,0.014513799920678139,0.09802700579166412,-0.9093575477600098,-0.27895301580429077
11.44,0.03169068321585655,0.031024912372231483,0.007057168986648321,0.10485900193452835,-0.9198495149612427,-0.2862730026245117
11.46,-0.0011983871227130294,0.05232957378029823,-0.00359516148455441,0.11074550449848175,-0.9452559351921082,-0.29188501834869385
11.48,-0.020372580736875534,0.058720968663692474,-0.015312724746763706,0.11928550899028778,-0.9584320187568665,-0.3004249930381775
11.5,-0.036351077258586884,0.03954677656292915,-0.02276935614645481,0.11489349603652954,-0.9469640254974365,-0.31119149923324585
11.52,-0.037416309118270874,0.026763979345560074,-0.02596505545079708,0.1168454959988594,-0.926925539970398,-0.3107035160064697
11.54,-0.03209014609456062,0.024633513763546944,-0.02489982172846794,0.1168454959988594,-0.9154574871063232,-0.3107035160064697
11.56,-0.034220609813928604,0.027829213067889214,-0.0238345880061388,0.12172549962997437,-0.9235095381736755,-0.31241148710250854
11.58,-0.03954677656292915,0.029959678649902344,-0.02596505545079708,0.1214815080165863,-0.9259494543075562,-0.31289950013160706
11.6,-0.03528584539890289,0.028894444927573204,-0.03235645219683647,0.12806950509548187,-0.9293654561042786,-0.30704349279403687
11.62,-0.033155377954244614,0.025698747485876083,-0.03661738336086273,0.13124150037765503,-0.9271695613861084,-0.30850750207901
11.64,-0.024633513763546944,0.031024912372231483,-0.04300878196954727,0.12953349947929382,-0.9252175092697144,-0.30850750207901
11.66,-0.023568280041217804,0.027829213067889214,-0.04407401755452156,0.1319735050201416,-0.9210695028305054,-0.31460750102996826
11.68,-0.028894444927573204,0.026763979345560074,-0.03874785080552101,0.1319735050201416,-0.9169214963912964,-0.31753548979759216
11.7,-0.028894444927573204,0.026763979345560074,-0.03022598661482334,0.13834799826145172,-0.9249734878540039,-0.3224155008792877
11.72,-0.03954677656292915,0.019307348877191544,-0.02596505545079708,0.13416950404644012,-0.9323239326477051,-0.324367493391037
11.74,-0.050199106335639954,0.012915950268507004,-0.02489982172846794,0.13859198987483978,-0.9286335110664368,-0.31924352049827576
11.76,-0.048068638890981674,0.009720250964164734,-0.02596505545079708,0.13859198987483978,-0.9286335110664368,-0.31924352049827576
11.78,-0.047003407031297684,0.007589785382151604,-0.03448691964149475,0.13688400387763977,-0.9139935374259949,-0.32680749893188477
11.8,-0.051264338195323944,0.007589785382151604,-0.03768261894583702,0.13688400387763977,-0.9139935374259949,-0.32680749893188477
11.82,-0.051264338195323944,0.010785484686493874,-0.03448691964149475,0.13712801039218903,-0.9135055541992188,-0.3290035128593445
11.84,-0.053394805639982224,0.015046416781842709,-0.03874785080552101,0.13663999736309052,-0.9142375588417053,-0.32387951016426086
11.86,-0.04913387447595596,0.011850717477500439,-0.03874785080552101,0.14054399728775024,-0.9147255420684814,-0.3248555064201355
11.88,-0.048068638890981674,0.011850717477500439,-0.03661738336086273,0.14103201031684875,-0.9181415438652039,-0.3231475055217743
11.9,-0.048068638890981674,0.012915950268507004,-0.04300878196954727,0.14005599915981293,-0.9159454703330994,-0.3236355185508728
11.92,-0.051264338195323944,0.007589785382151604,-0.039813082665205,0.13587749004364014,-0.9157015085220337,-0.31997549533843994
11.94,-0.054460037499666214,0.009720250964164734,-0.03768261894583702,0.1361214965581894,-0.912529468536377,-0.32217147946357727
11.96,-0.051264338195323944,0.008655018173158169,-0.03661738336086273,0.13587749004364014,-0.912529468536377,-0.32339149713516235
11.98,-0.050199106335639954,0.011850717477500439,-0.03555215150117874,0.13563349843025208,-0.9115535020828247,-0.3260754942893982
12,-0.048068638890981674,0.016111649572849274,-0.03129122033715248,0.13563349843025208,-0.9115535020828247,-0.3260754942893982
12.02,-0.041677240282297134,0.015046416781842709,-0.02916075475513935,0.1466439962387085,-0.9149695038795471,-0.32851549983024597
12.04,-0.03848154470324516,0.009720250964164734,-0.02596505545079708,0.13587749004364014,-0.912529468536377,-0.3282715082168579
12.06,-0.037416309118270874,0.012915950268507004,-0.02170412242412567,0.14152000844478607,-0.9113094806671143,-0.32631948590278625
12.08,-0.03528584539890289,0.008655018173158169,-0.01744319126009941,0.14103201031684875,-0.9093575477600098,-0.32680749893188477
12.1,-0.033155377954244614,0.011850717477500439,-0.0185084231197834,0.13981200754642487,-0.9086254835128784,-0.3241235017776489
12.12,-0.028894444927573204,0.015046416781842709,-0.014247491955757141,0.14127600193023682,-0.9056975245475769,-0.3260754942893982
12.14,-0.033155377954244614,0.011850717477500439,-0.015312724746763706,0.1466439962387085,-0.9096015095710754,-0.32680749893188477
12.16,-0.04913387447595596,0.015046416781842709,-0.0185084231197834,0.1454240083694458,-0.9088694453239441,-0.3331820070743561
12.18,-0.058720968663692474,0.019307348877191544,-0.02170412242412567,0.14859600365161896,-0.9074054956436157,-0.33095547556877136
12.2,-0.06404713541269302,0.016111649572849274,-0.02063889056444168,0.14859600365161896,-0.9074054956436157,-0.33095547556877136
12.22,-0.06511236727237701,0.019307348877191544,-0.01957365684211254,0.1454240083694458,-0.9081375002861023,-0.33733001351356506
12.24,-0.06298190355300903,0.018242115154862404,-0.02596505545079708,0.15225601196289062,-0.9081375002861023,-0.34025800228118896
12.26,-0.058720968663692474,0.020372580736875534,-0.02596505545079708,0.15225601196289062,-0.9081375002861023,-0.34025800228118896
12.28,-0.05978620424866676,0.021437814459204674,-0.02809552103281021,0.1542080044746399,-0.8976149559020996,-0.344650000333786
12.3,-0.057655736804008484,0.017176883295178413,-0.03129122033715248,0.15274399518966675,-0.8983469605445862,-0.33610999584198
12.32,-0.057655736804008484,0.013981183059513569,-0.02596505545079708,0.15274399518966675,-0.8983469605445862,-0.33610999584198
12.34,-0.050199106335639954,0.022503048181533813,-0.02276935614645481,0.1525000035762787,-0.9049655199050903,-0.3466019928455353
12.36,-0.044872939586639404,0.027829213067889214,-0.02489982172846794,0.15737999975681305,-0.9091135263442993,-0.34562602639198303
12.38,-0.041677240282297134,0.023568280041217804,-0.03129122033715248,0.15445201098918915,-0.9066734910011292,-0.3492859899997711
12.4,-0.03954677656292915,0.015046416781842709,-0.03235645219683647,0.15445201098918915,-0.9066734910011292,-0.3492859899997711
12.42,-0.033155377954244614,0.012915950268507004,-0.03555215150117874,0.1600639969110489,-0.9022509455680847,-0.35270199179649353
12.44,-0.034220609813928604,0.006524552125483751,-0.03555215150117874,0.16104000806808472,-0.9032270312309265,-0.35270199179649353
12.46,-0.034220609813928604,0.004394086077809334,-0.04300878196954727,0.16399849951267242,-0.899323046207428,-0.3522140085697174
12.48,-0.041677240282297134,-0.0030625448562204838,-0.04194355010986328,0.16619449853897095,-0.9022509455680847,-0.3463580012321472
12.5,-0.043807707726955414,-0.009453942999243736,-0.039813082665205,0.1676584929227829,-0.9002990126609802,-0.3534339964389801
12.52,-0.036351077258586884,-0.019041040912270546,-0.03661738336086273,0.16424250602722168,-0.903471052646637,-0.35245800018310547
12.54,-0.033155377954244614,-0.030758604407310486,-0.03129122033715248,0.1593320071697235,-0.9024949669837952,-0.35880202054977417
12.56,-0.024633513763546944,-0.03288906812667847,-0.02703028731048107,0.15908800065517426,-0.9029829502105713,-0.3558740019798279
12.58,-0.022503048181533813,-0.038215234875679016,-0.02489982172846794,0.15664801001548767,-0.9027389883995056,-0.3622484803199768
12.6,-0.021437814459204674,-0.045671865344047546,-0.0238345880061388,0.1600639969110489,-0.9056975245475769,-0.3580699861049652
12.62,-0.023568280041217804,-0.038215234875679016,-0.02063889056444168,0.157136008143425,-0.9012749791145325,-0.3568499982357025
12.64,-0.020372580736875534,-0.031823836266994476,-0.02063889056444168,0.15518400073051453,-0.8995670080184937,-0.35367798805236816
12.66,-0.023568280041217804,-0.033954303711652756,-0.015312724746763706,0.15274399518966675,-0.9024949669837952,-0.3592900037765503
12.68,-0.033155377954244614,-0.027562905102968216,-0.013182258233428001,0.15445201098918915,-0.9047214388847351,-0.35831400752067566
12.7,-0.03209014609456062,-0.025432437658309937,-0.008921326138079166,0.15518400073051453,-0.8995670080184937,-0.35782599449157715
12.72,-0.031024912372231483,-0.020106272771954536,-0.004660394508391619,0.15615999698638916,-0.9022509455680847,-0.36371251940727234
12.74,-0.034220609813928604,-0.014780107885599136,-0.008921326138079166,0.16079600155353546,-0.9007869958877563,-0.3668844997882843
12.76,-0.03528584539890289,-0.019041040912270546,-0.004660394508391619,0.15811198949813843,-0.9024949669837952,-0.3629804849624634
12.78,-0.036351077258586884,-0.009453942999243736,-0.004660394508391619,0.152988001704216,-0.8954190015792847,-0.36322450637817383
12.8,-0.040612008422613144,-0.008388710208237171,-0.0025299284607172012,0.15811198949813843,-0.8944429755210876,-0.3615165054798126
12.82,-0.04593817517161369,-0.006258244160562754,0.0027962366584688425,0.1542080044746399,-0.8941989541053772,-0.35880202054977417
12.84,-0.04274247586727142,-0.004127778112888336,-0.00359516148455441,0.15323199331760406,-0.8981029987335205,-0.3622484803199768
12.86,-0.03954677656292915,0.004394086077809334,-0.0025299284607172012,0.15371999144554138,-0.895175039768219,-0.36249250173568726
12.88,-0.047003407031297684,0.006524552125483751,0.0038614696823060513,0.15323199331760406,-0.8983469605445862,-0.3629804849624634
12.9,-0.053394805639982224,0.010785484686493874,0.007057168986648321,0.15274399518966675,-0.9000550508499146,-0.3673724830150604
12.92,-0.048068638890981674,0.015046416781842709,0.009187635034322739,0.14859600365161896,-0.903471052646637,-0.36542049050331116
12.94,-0.043807707726955414,0.018242115154862404,0.010252867825329304,0.1500599980354309,-0.9007869958877563,-0.3681045174598694
12.96,-0.03848154470324516,0.024633513763546944,0.01983996480703354,0.15103599429130554,-0.904233455657959,-0.3656645119190216
12.98,-0.03848154470324516,0.029959678649902344,0.02303566411137581,0.15225601196289062,-0.9032270312309265,-0.36712849140167236
13,-0.04274247586727142,0.031024912372231483,0.02303566411137581,0.15274399518966675,-0.8988350629806519,-0.364688515663147
13.02,-0.040612008422613144,0.036351077258586884,0.02516612969338894,0.152988001704216,-0.8998110294342041,-0.3634684979915619
13.04,-0.037416309118270874,0.03954677656292915,0.02410089783370495,0.1542080044746399,-0.8998110294342041,-0.36542049050331116
13.06,-0.03848154470324516,0.03848154470324516,0.01983996480703354,0.15908800065517426,-0.8954190015792847,-0.3703005015850067
13.08,-0.03954677656292915,0.041677240282297134,0.01664426550269127,0.1554279923439026,-0.9010310173034668,-0.37176448106765747
13.1,-0.044872939586639404,0.03848154470324516,0.01664426550269127,0.15518400073051453,-0.8959070444107056,-0.37469249963760376
13.12,-0.051264338195323944,0.03954677656292915,0.010252867825329304,0.1559159904718399,-0.8939549922943115,-0.37640050053596497
13.14,-0.050199106335639954,0.036351077258586884,0.011318100616335869,0.16030798852443695,-0.8939549922943115,-0.37078848481178284
13.16,-0.047003407031297684,0.036351077258586884,0.008122402243316174,0.15786799788475037,-0.895175039768219,-0.3676165044307709
13.18,-0.04913387447595596,0.031024912372231483,0.009187635034322739,0.1525000035762787,-0.8954190015792847,-0.36712849140167236
13.2,-0.041677240282297134,0.027829213067889214,0.009187635034322739,0.15689200162887573,-0.8985909819602966,-0.37005650997161865
13.22,-0.033155377954244614,0.023568280041217804,0.004926702938973904,0.15737999975681305,-0.8971269726753235,-0.36883652210235596
13.24,-0.027829213067889214,0.020372580736875534,0.0027962366584688425,0.15982000529766083,-0.8963950276374817,-0.3715204894542694
13.26,-0.028894444927573204,0.016111649572849274,0.0017310036346316338,0.15982000529766083,-0.8963950276374817,-0.3715204894542694
13.28,-0.027829213067889214,0.015046416781842709,-0.0003994623839389533,0.1588440090417862,-0.8893189430236816,-0.36786049604415894
13.3,-0.021437814459204674,0.011850717477500439,-0.0025299284607172012,0.15835599601268768,-0.8924909830093384,-0.3681045174598694
13.32,-0.017176883295178413,0.011850717477500439,-0.005725627299398184,0.15908800065517426,-0.8917590379714966,-0.37005650997161865
13.34,-0.015046416781842709,0.004394086077809334,-0.008921326138079166,0.16201600432395935,-0.8917590379714966,-0.37078848481178284
13.36,-0.015046416781842709,0.004394086077809334,-0.005725627299398184,0.15640400350093842,-0.8927350044250488,-0.3749364912509918
13.38,-0.015046416781842709,0.009720250964164734,-0.008921326138079166,0.1588440090417862,-0.8880990147590637,-0.372252494096756
13.4,-0.009720250964164734,0.006524552125483751,-0.013182258233428001,0.1593320071697235,-0.8915150165557861,-0.37347251176834106
13.42,-0.006524552125483751,0.011850717477500439,-0.009986559860408306,0.1622599959373474,-0.8907830119132996,-0.3705444931983948
13.44,-0.004394086077809334,0.015046416781842709,-0.009986559860408306,0.1622599959373474,-0.8907830119132996,-0.3705444931983948
13.46,0.0007989247678779066,0.018242115154862404,-0.013182258233428001,0.15982000529766083,-0.89102703332901,-0.3751804828643799
13.48,0.0018641578499227762,0.017176883295178413,-0.008921326138079166,0.15982000529766083,-0.8922470211982727,-0.3710325062274933
13.5,0.0007989247678779066,0.012915950268507004,-0.006790860556066036,0.16372400522232056,-0.8902950286865234,-0.3744485080242157
13.52,0.00399462366476655,0.015046416781842709,-0.007856093347072601,0.16079600155353546,-0.8934669494628906,-0.3703005015850067
13.54,0.0018641578499227762,0.010785484686493874,-0.007856093347072601,0.15982000529766083,-0.8912710547447205,-0.38176849484443665
13.56,0.002929390873759985,0.006524552125483751,-0.008921326138079166,0.1605519950389862,-0.8917590379714966,-0.37542450428009033
13.58,0.0061250897124409676,0.009720250964164734,-0.007856093347072601,0.1600639969110489,-0.8954190015792847,-0.38176849484443665
13.6,0.00719032296910882,0.007589785382151604,-0.00359516148455441,0.16299200057983398,-0.8934669494628906,-0.3756684958934784
13.62,0.0061250897124409676,0.007589785382151604,-0.008921326138079166,0.16399849951267242,-0.8905390501022339,-0.3751804828643799
13.64,0.0007989247678779066,0.009720250964164734,-0.011051792651414871,0.16372400522232056,-0.8929789662361145,-0.3785965144634247
13.66,-0.0011983871227130294,0.009720250964164734,-0.008921326138079166,0.1617719978094101,-0.8944429755210876,-0.3756684958934784
13.68,-0.008655018173158169,0.0033288532868027687,-0.005725627299398184,0.1622599959373474,-0.8946870565414429,-0.37176448106765747
13.7,-0.005459319334477186,0.00226362026296556,-0.0025299284607172012,0.16299200057983398,-0.8880990147590637,-0.37176448106765747
13.72,-0.00226362026296556,0.0011983871227130294,-0.006790860556066036,0.16448649764060974,-0.8956630229949951,-0.3773764967918396
13.74,-0.0033288532868027687,0.00226362026296556,-0.00359516148455441,0.1676584929227829,-0.8934669494628906,-0.3773764967918396
13.76,-0.004394086077809334,0.005459319334477186,-0.007856093347072601,0.16424250602722168,-0.8922470211982727,-0.37591248750686646
13.78,-0.005459319334477186,0.00226362026296556,-0.006790860556066036,0.16399849951267242,-0.8949310183525085,-0.37762051820755005
13.8,-0.0033288532868027687,0.00226362026296556,-0.004660394508391619,0.16570650041103363,-0.8956630229949951,-0.37249651551246643
13.82,-0.00226362026296556,0.004394086077809334,-0.00359516148455441,0.1664385050535202,-0.8898069858551025,-0.373228520154953
13.84,-0.00226362026296556,0.006524552125483751,-0.006790860556066036,0.16448649764060974,-0.89102703332901,-0.3768885135650635
13.86,-0.005459319334477186,0.005459319334477186,-0.00359516148455441,0.16692650318145752,-0.89102703332901,-0.37469249963760376
13.88,-0.006524552125483751,0.0011983871227130294,-0.0025299284607172012,0.16323600709438324,-0.8915150165557861,-0.3773764967918396
13.9,-0.005459319334477186,0.005459319334477186,-0.0025299284607172012,0.1676584929227829,-0.8924909830093384,-0.373228520154953
13.92,-0.0033288532868027687,0.006524552125483751,-0.0003994623839389533,0.16521848738193512,-0.8920029997825623,-0.37298449873924255
13.94,-0.006524552125483751,0.004394086077809334,-0.00359516148455441,0.16741450130939484,-0.8956630229949951,-0.3715204894542694
13.96,-0.007589785382151604,-0.001997311832383275,0.000665770610794425,0.16546249389648438,-0.8944429755210876,-0.3705444931983948
13.98,-0.006524552125483751,0.0033288532868027687,0.000665770610794425,0.16372400522232056,-0.8944429755210876,-0.3761565089225769
14,-0.008655018173158169,0.0001331541279796511,0.0017310036346316338,0.16668249666690826,-0.8927350044250488,-0.3744485080242157
14.02,-0.005459319334477186,-0.001997311832383275,0.0038614696823060513,0.16201600432395935,-0.8900509476661682,-0.3744485080242157
14.04,-0.0001331541279796511,0.004394086077809334,0.004926702938973904,0.16424250602722168,-0.8927350044250488,-0.37640050053596497
14.06,0.0007989247678779066,0.0011983871227130294,0.007057168986648321,0.1681465059518814,-0.8912710547447205,-0.37835249304771423
14.08,0.0018641578499227762,-0.0009320789249613881,0.005991935729980469,0.16790249943733215,-0.8939549922943115,-0.3766445219516754
14.1,-0.0001331541279796511,0.0011983871227130294,0.009187635034322739,0.16570650041103363,-0.8905390501022339,-0.37713250517845154
14.12,0.0050598569214344025,0.0011983871227130294,0.009187635034322739,0.16274799406528473,-0.8954190015792847,-0.37591248750686646
14.14,0.002929390873759985,0.005459319334477186,0.007057168986648321,0.1688784956932068,-0.89102703332901,-0.37762051820755005
14.16,0.002929390873759985,0.004394086077809334,0.005991935729980469,0.16985450685024261,-0.8973709940910339,-0.3749364912509918
14.18,-0.004394086077809334,0.0001331541279796511,0.011318100616335869,0.164730504155159,-0.8944429755210876,-0.37542450428009033
14.2,-0.008655018173158169,0.0001331541279796511,0.011318100616335869,0.16152800619602203,-0.8920029997825623,-0.3751804828643799
14.22,-0.005459319334477186,-0.001997311832383275,0.009187635034322739,0.16692650318145752,-0.8912710547447205,-0.3749364912509918
14.24,-0.005459319334477186,0.0011983871227130294,0.005991935729980469,0.164730504155159,-0.8920029997825623,-0.3761565089225769
14.26,-0.004394086077809334,0.0033288532868027687,0.005991935729980469,0.1664385050535202,-0.8956630229949951,-0.37762051820755005
14.28,-0.0033288532868027687,-0.005193010903894901,0.007057168986648321,0.16372400522232056,-0.8900509476661682,-0.3773764967918396
14.3,-0.004394086077809334,-0.004127778112888336,0.005991935729980469,0.164730504155159,-0.8883429765701294,-0.37640050053596497
14.32,-0.00226362026296556,-0.001997311832383275,0.009187635034322739,0.16299200057983398,-0.8898069858551025,-0.37542450428009033
14.34,-0.0033288532868027687,-0.0009320789249613881,0.0038614696823060513,0.1676584929227829,-0.8934669494628906,-0.37713250517845154
14.36,0.0007989247678779066,-0.001997311832383275,0.0017310036346316338,0.1664385050535202,-0.8917590379714966,-0.37810850143432617
14.38,0.0007989247678779066,-0.004127778112888336,0.004926702938973904,0.16424250602722168,-0.8902950286865234,-0.372252494096756
14.4,-0.0011983871227130294,-0.007323476951569319,0.0038614696823060513,0.16323600709438324,-0.8924909830093384,-0.3727405071258545
14.42,-0.0033288532868027687,-0.004127778112888336,0.0038614696823060513,0.16323600709438324,-0.8924909830093384,-0.3727405071258545
14.44,0.0007989247678779066,-0.006258244160562754,0.0027962366584688425,0.16274799406528473,-0.889074981212616,-0.3778645098209381
14.46,-0.4059869349002838,-0.0925421193242073,0.23914481699466705,0.2626660168170929,0.12489750236272812,0.9050569534301758
14.48,-0.031024912372231483,-0.12343387305736542,0.23807957768440247,0.2702299952507019,0.09607499837875366,1.024495005607605
14.5,-0.09174319356679916,0.4356802999973297,0.45325663685798645,0.17961449921131134,0.03379400074481964,1.0025044679641724
14.52,-0.08854749798774719,0.13208889961242676,0.4159734845161438,0.36282798647880554,0.09095099568367004,0.92558354139328
14.54,-0.0778951644897461,-0.009453942999243736,0.1199718713760376,0.5440589785575867,0.20038500428199768,0.8957849740982056
14.56,-0.07256899774074554,-0.023301972076296806,-0.0504654161632061,0.4786059856414795,0.19233299791812897,0.9165250062942505
14.58,-0.31863781809806824,0.6572487950325012,0.09227581322193146,0.2563219964504242,0.11660150438547134,0.8759905099868774
14.6,-0.5338149070739746,1.1343400478363037,0.03049229457974434,0.24409149587154388,0.051880501210689545,0.8640040159225464
14.62,-0.22383208572864532,0.7742912769317627,-0.178293377161026,0.2248154878616333,0.02622999995946884,1.004243016242981
14.64,0.08921326696872711,0.6487269401550293,-0.30292564630508423,0.16274799406528473,0.10071099549531937,1.05673348903656
14.66,0.5611115097999573,0.7742912769317627,-0.5094476938247681,0.17595449090003967,0.0701805055141449,1.1358810663223267
14.68,1.26496422290802,-0.015845341607928276,-0.5605788826942444,0.17595449090003967,0.0701805055141449,1.1358810663223267
14.7,1.5014458894729614,-0.335415244102478,-0.5243609547615051,0.2020930051803589,0.13761599361896515,1.0555135011672974
14.72,1.2362029552459717,-0.2864145338535309,-0.5105129480361938,0.2020930051803589,0.13761599361896515,1.0555135011672974
14.74,-0.5146406888961792,0.3930709958076477,0.13808083534240723,0.11147750169038773,0.13124150037765503,0.9839605689048767
14.76,-0.7850767374038696,0.6987928748130798,0.28175413608551025,0.17424650490283966,0.19989700615406036,1.0049749612808228
14.78,-0.8234251141548157,1.1322095394134521,0.19879911839962006,0.17424650490283966,0.19989700615406036,1.0049749612808228
14.8,-0.2600499987602234,0.3408745527267456,0.10505861043930054,0.18669049441814423,0.1593320071697235,1.0887584686279297
14.82,0.05512581020593643,-0.0712374597787857,0.07097115367650986,0.11147750169038773,0.10534700006246567,1.0684759616851807
14.84,0.14140968024730682,-0.14047759771347046,0.03368799388408661,0.10778699815273285,0.11830950528383255,1.024495005607605
14.86,0.0689738392829895,-0.027562905102968216,-0.012117025442421436,0.11196549981832504,0.13294950127601624,1.0081470012664795
14.88,0.015712186694145203,0.07363422960042953,-0.07496577501296997,0.10119900107383728,0.13810399174690247,1.0010404586791992
14.9,-0.040612008422613144,0.1374150663614273,-0.015312724746763706,0.10754299908876419,0.1378600001335144,0.9900605082511902
14.92,0.00399462366476655,0.060851436108350754,0.02942706272006035,0.10754299908876419,0.1378600001335144,0.9900605082511902
14.94,0.0370168462395668,0.023568280041217804,0.03368799388408661,0.10607899725437164,0.12514150142669678,1.0010404586791992
14.96,0.06151720881462097,0.031024912372231483,0.013448567129671574,0.10900700837373734,0.1407879889011383,1.0159550905227661
14.98,0.15738818049430847,-0.03928046673536301,0.000665770610794425,0.10900700837373734,0.1407879889011383,1.0159550905227661
15,0.09453943371772766,-0.14260807633399963,-0.00359516148455441,0.08164849877357483,0.14566799998283386,0.9934765100479126
15.02,-0.053394805639982224,0.033155377954244614,-0.005725627299398184,0.10412700474262238,0.15615999698638916,1.0091229677200317
15.04,-0.054460037499666214,0.04913387447595596,-0.02276935614645481,0.09095099568367004,0.14225199818611145,1.016687035560608
