timestamp,gyro_x,gyro_y,gyro_z,acc_x,acc_y,acc_z
0,0.17318643629550934,0.1817503571510315,-0.04270511865615845,-0.0279998779296875,-0.428802490234375,-0.878692626953125
0.02,0.20092378556728363,0.07864980399608612,-0.03298218548297882,-0.0279998779296875,-0.428802490234375,-0.878692626953125
0.04,0.19574473798274994,-0.14295928180217743,-0.024502946063876152,0.0290069580078125,-0.4463348388671875,-0.87005615234375
0.06,0.14178642630577087,-0.26586416363716125,-0.04164890944957733,0.02459716796875,-0.4441986083984375,-0.870269775390625
0.08,0.12777847051620483,-0.22972826659679413,-0.07482364028692245,-0.0115509033203125,-0.48822021484375,-0.8516693115234375
0.1,0.2688213288784027,-0.13682283461093903,-0.16019393503665924,-0.0126190185546875,-0.4910888671875,-0.8653106689453125
0.12,0.461450457572937,-0.10158415138721466,-0.2039712369441986,-0.0136566162109375,-0.4698944091796875,-0.8877410888671875
0.14,0.39611324667930603,-0.14738279581069946,-0.10561404377222061,0.004425048828125,-0.471405029296875,-0.904083251953125
0.16,0.23772786557674408,-0.09764080494642258,-0.04616430029273033,0.0166168212890625,-0.494903564453125,-0.8938751220703125
0.18,0.2045976221561432,-0.034692466259002686,-0.044311538338661194,-0.0151214599609375,-0.50384521484375,-0.8917388916015625
0.2,0.2810620367527008,-0.03441496565937996,-0.048885516822338104,-0.0182952880859375,-0.497711181640625,-0.8833770751953125
0.22,0.29072850942611694,-0.08542408794164658,-0.022790798917412758,-0.00537109375,-0.4857635498046875,-0.8842620849609375
0.24,0.365369975566864,-0.39578408002853394,0.09651029109954834,0.0086822509765625,-0.4871368408203125,-0.873626708984375
0.26,0.3691657781600952,-0.37930604815483093,0.0865844264626503,0.040802001953125,-0.5366363525390625,-0.928314208984375
0.28,0.2125045359134674,-0.10627477616071701,0.01600666344165802,-0.0429840087890625,-0.5610809326171875,-0.8861236572265625
0.3,0.023813987150788307,0.1560436636209488,0.0008860336965881288,-0.0393218994140625,-0.5172271728515625,-0.7898406982421875
0.32,0.06408311426639557,-0.07312081754207611,0.08964386582374573,-0.0393218994140625,-0.5172271728515625,-0.7898406982421875
0.34,0.3327116370201111,-0.468178391456604,0.11264878511428833,0.0076141357421875,-0.5190277099609375,-0.8873138427734375
0.36,0.6196664571762085,-0.67500239610672,0.08341925591230392,-0.003936767578125,-0.5499114990234375,-0.9705963134765625
0.38,0.6889927983283997,-0.3071785867214203,-0.05955493822693825,-0.044097900390625,-0.5636138916015625,-0.956878662109375
0.4,0.5235779881477356,-0.06735214591026306,-0.16083203256130219,-0.1063385009765625,-0.5469818115234375,-0.85015869140625
0.42,0.32591286301612854,-0.057565558701753616,-0.11072757840156555,-0.0922698974609375,-0.5598602294921875,-0.799713134765625
0.44,0.09665703773498535,0.1090812161564827,-0.08613035827875137,-0.055633544921875,-0.577484130859375,-0.8324432373046875
0.46,-0.1912487894296646,0.1381179243326187,0.09347136318683624,-0.0654449462890625,-0.579376220703125,-0.8225250244140625
0.48,0.06245352327823639,-0.07333999127149582,0.14525918662548065,-0.0278167724609375,-0.5815277099609375,-0.7925872802734375
0.5,0.18149176239967346,0.1928115338087082,0.5943850874900818,-0.0562744140625,-0.57623291015625,-0.9067840576171875
0.52,-0.010446515865623951,0.6437401175498962,1.0979970693588257,-0.0825958251953125,-0.5043487548828125,-0.85552978515625
0.54,-0.16003839671611786,0.6580218076705933,1.0316641330718994,-0.0587615966796875,-0.577789306640625,-0.80133056640625
0.56,0.0193108469247818,0.34276455640792847,0.5622848868370056,-0.0281829833984375,-0.5392303466796875,-0.861480712890625
0.58,0.7411600947380066,-0.19393059611320496,0.2280462086200714,-0.0626983642578125,-0.5572509765625,-0.8898162841796875
0.6,1.5070348978042603,-0.5364149808883667,0.03568582609295845,-0.0515289306640625,-0.58837890625,-1.0245361328125
0.62,1.8854477405548096,-0.7501283288002014,-0.11452364921569824,-0.04742431640625,-0.5745391845703125,-1.015655517578125
0.64,1.8118594884872437,-0.738802433013916,-0.18597306311130524,-0.0306396484375,-0.563812255859375,-0.9182586669921875
0.66,1.032381534576416,-0.7773247957229614,-0.3758529722690582,-0.0605010986328125,-0.6090240478515625,-0.8606109619140625
0.68,0.7069379687309265,-0.69748455286026,-0.48236799240112305,-0.127410888671875,-0.6265411376953125,-0.6637115478515625
0.7,0.8079735040664673,-0.866955578327179,-0.5265913605690002,-0.1502532958984375,-0.6334228515625,-0.678070068359375
0.72,1.0021616220474243,-0.5881412625312805,-0.6685498356819153,-0.125152587890625,-0.6767425537109375,-0.7925567626953125
0.74,1.3629677295684814,-0.4945221245288849,-0.6700630187988281,-0.1450958251953125,-0.6619873046875,-0.859649658203125
0.76,1.4960185289382935,-0.2524801790714264,-0.5083252787590027,-0.1294097900390625,-0.6522064208984375,-0.9202117919921875
0.78,0.9710087776184082,0.3356831967830658,-0.6801649332046509,-0.17218017578125,-0.6764373779296875,-0.865966796875
0.8,0.203008770942688,0.3995998501777649,-0.6440072059631348,-0.2411346435546875,-0.69024658203125,-0.6330718994140625
0.82,-0.2817946672439575,0.4378766715526581,-0.34756436944007874,-0.1221923828125,-0.61474609375,-0.5381317138671875
0.84,-0.6015335321426392,0.013001818209886551,-0.16586540639400482,0.01788330078125,-0.57958984375,-0.5703887939453125
0.86,-0.989187479019165,-0.76444011926651,-0.12429771572351456,0.013275146484375,-0.6434173583984375,-0.5694732666015625
0.88,-1.152811884880066,0.42005667090415955,-0.1311497688293457,-0.080291748046875,-0.68927001953125,-0.5915985107421875
0.9,-1.3810399770736694,0.7058913707733154,-0.11246475577354431,-0.2265472412109375,-0.6845245361328125,-0.872161865234375
0.92,-1.54702627658844,1.084598183631897,-0.28663602471351624,-0.16497802734375,-0.5015106201171875,-0.617462158203125
0.94,-1.5388226509094238,0.6357431411743164,-0.3950927257537842,-0.146087646484375,-0.5389556884765625,-0.5711517333984375
0.96,-1.3448902368545532,0.49549177289009094,-0.48486602306365967,-0.0441131591796875,-0.547637939453125,-0.626617431640625
0.98,-0.9694857001304626,0.8050288558006287,-0.5110449194908142,-0.004058837890625,-0.5116119384765625,-0.7093963623046875
1,-0.5186200141906738,1.1343369483947754,-0.48067501187324524,-0.0180816650390625,-0.445892333984375,-0.7530670166015625
1.02,-0.17597955465316772,1.1491811275482178,-0.34029045701026917,-0.039215087890625,-0.4560546875,-0.790740966796875
1.04,-0.033543311059474945,1.0864194631576538,-0.2121918797492981,-0.028076171875,-0.4694366455078125,-0.754302978515625
1.06,-0.07346542924642563,1.1093618869781494,-0.1787412464618683,0.0236663818359375,-0.4459075927734375,-0.69940185546875
1.08,-0.3837926685810089,0.8987982273101807,-0.25258246064186096,0.07330322265625,-0.43853759765625,-0.6811370849609375
1.1,-0.5403133034706116,0.26098498702049255,-0.2163141965866089,0.05902099609375,-0.4862060546875,-0.6478424072265625
1.12,-0.07980135828256607,-0.20705731213092804,-0.062430620193481445,0.0977935791015625,-0.55633544921875,-0.6862030029296875
1.14,0.5429524779319763,-0.4799381196498871,-0.2634177803993225,0.07135009765625,-0.5798492431640625,-0.828094482421875
1.16,0.8663217425346375,-0.8682613372802734,-0.6711432337760925,-0.0180511474609375,-0.651611328125,-0.8054656982421875
1.18,0.9379853010177612,-1.1982885599136353,-1.1232142448425293,0.005523681640625,-0.8061676025390625,-0.7188873291015625
1.2,0.9348379969596863,-1.2056080102920532,-1.405502200126648,0.0930328369140625,-0.868499755859375,-0.7000885009765625
1.22,0.7476938962936401,-1.162067174911499,-1.384650468826294,0.165618896484375,-0.8459014892578125,-0.66461181640625
1.24,0.43814617395401,-1.251343011856079,-1.0637868642807007,0.265899658203125,-0.7698822021484375,-0.6194610595703125
1.26,0.04650837928056717,-1.3377768993377686,-0.7303170561790466,0.3271331787109375,-0.734710693359375,-0.620819091796875
1.28,-0.24055294692516327,-1.2104418277740479,-0.3519077003002167,0.3567352294921875,-0.7540435791015625,-0.6157379150390625
1.3,-0.421590119600296,-0.8213644027709961,-0.04710093140602112,0.4009246826171875,-0.7489776611328125,-0.6837310791015625
1.32,-0.444646954536438,-0.28663069009780884,0.14669862389564514,0.3653717041015625,-0.736480712890625,-0.759918212890625
1.34,-0.40649664402008057,0.0769544392824173,0.37161004543304443,0.2917938232421875,-0.7660675048828125,-0.830352783203125
1.36,-0.4512507915496826,0.10278603434562683,0.5139440298080444,0.276031494140625,-0.77374267578125,-0.8294830322265625
1.38,-0.4353189766407013,-0.06682749837636948,0.534607470035553,0.2322998046875,-0.7931671142578125,-0.7734222412109375
1.4,-0.2189003825187683,0.1872844099998474,0.4142048954963684,0.192718505859375,-0.8477783203125,-0.8134613037109375
1.42,-0.07480872422456741,0.3843231797218323,0.2847265303134918,0.11761474609375,-0.810516357421875,-0.8766937255859375
1.44,-0.00065460498444736,0.3890492022037506,0.2742571234703064,0.071014404296875,-0.7733001708984375,-0.8795013427734375
1.46,0.11532153189182281,0.271036833524704,0.3191084861755371,0.091094970703125,-0.733001708984375,-0.8545379638671875
1.48,0.20984190702438354,0.14476756751537323,0.320018470287323,0.108856201171875,-0.6992645263671875,-0.8424072265625
1.5,0.2984154522418976,0.22055155038833618,0.32234662771224976,0.079803466796875,-0.6774139404296875,-0.8338165283203125
1.52,0.31017357110977173,0.21796855330467224,0.34830179810523987,0.0566253662109375,-0.6454925537109375,-0.827362060546875
1.54,0.38204190135002136,0.31023749709129333,0.38468828797340393,0.053314208984375,-0.620208740234375,-0.8084716796875
1.56,0.44236117601394653,0.2940822243690491,0.36328792572021484,0.018096923828125,-0.611602783203125,-0.8364105224609375
1.58,0.4439907670021057,0.24033457040786743,0.3335705101490021,-0.012054443359375,-0.617767333984375,-0.80242919921875
1.6,0.3959638476371765,0.16342541575431824,0.2833837866783142,-0.013763427734375,-0.6360931396484375,-0.740570068359375
1.62,0.31657183170318604,0.07699517905712128,0.24406778812408447,-0.0213623046875,-0.6449432373046875,-0.6843109130859375
1.64,0.2696325480937958,0.08759669214487076,0.22241362929344177,-0.027191162109375,-0.6533050537109375,-0.65997314453125
1.66,0.20863497257232666,0.1558188945055008,0.21334609389305115,-0.02880859375,-0.6514892578125,-0.6802520751953125
1.68,0.01774384267628193,0.06846747547388077,0.2288970947265625,-0.038848876953125,-0.6647491455078125,-0.68060302734375
1.7,-0.17584186792373657,0.0722784548997879,0.22404907643795013,-0.028167724609375,-0.6988372802734375,-0.646270751953125
1.72,-0.27579936385154724,0.14343678951263428,0.17798517644405365,-0.0363616943359375,-0.7015838623046875,-0.652496337890625
1.74,-0.2098134160041809,0.22638094425201416,0.11992081254720688,-0.0490264892578125,-0.6930694580078125,-0.685394287109375
1.76,-0.023208383470773697,0.2404743880033493,0.0796615406870842,-0.0427093505859375,-0.6810760498046875,-0.73370361328125
1.78,0.14413534104824066,0.1954541802406311,0.041493114084005356,-0.02972412109375,-0.6663360595703125,-0.7510528564453125
1.8,0.0698603093624115,0.15003317594528198,-0.0013345100451260805,-0.0136871337890625,-0.6758880615234375,-0.7348785400390625
1.82,-0.16465899348258972,0.14875619113445282,0.011213771998882294,0.002349853515625,-0.6894378662109375,-0.6623992919921875
1.84,-0.3611952066421509,0.15062172710895538,0.031928107142448425,0.0225830078125,-0.6951904296875,-0.6126251220703125
1.86,-0.37066274881362915,0.21204806864261627,0.058218300342559814,0.0511627197265625,-0.658721923828125,-0.6873321533203125
1.88,-0.26205557584762573,0.3067231774330139,0.029704099521040916,0.0511627197265625,-0.658721923828125,-0.6873321533203125
1.9,-0.22669093310832977,0.34412115812301636,-0.03829332813620567,0.0432281494140625,-0.6490936279296875,-0.723419189453125
1.92,-0.3456346392631531,0.28731247782707214,-0.0779576450586319,0.0458984375,-0.6535186767578125,-0.7191925048828125
1.94,-0.46987056732177734,0.263642281293869,-0.07734299451112747,0.068206787109375,-0.659423828125,-0.7038421630859375
1.96,-0.45942777395248413,0.2666540741920471,-0.030225280672311783,0.0818939208984375,-0.63018798828125,-0.7220916748046875
1.98,-0.3701404929161072,0.27403369545936584,0.03729144483804703,0.0962677001953125,-0.594451904296875,-0.7833404541015625
2,-0.28171050548553467,0.24092979729175568,0.08284454792737961,0.0986328125,-0.5697021484375,-0.8256072998046875
2.02,-0.23488548398017883,0.20342981815338135,0.0848831981420517,0.0852813720703125,-0.560546875,-0.83624267578125
2.04,-0.23667192459106445,0.18397702276706696,0.059967994689941406,0.053619384765625,-0.57647705078125,-0.84173583984375
2.06,-0.16967850923538208,0.1592991054058075,0.053102098405361176,0.046722412109375,-0.588043212890625,-0.8392486572265625
2.08,-0.03538835048675537,0.05594608932733536,0.03983982279896736,0.05340576171875,-0.5884552001953125,-0.84698486328125
2.1,0.09346390515565872,-0.014186658896505833,0.013797570951282978,0.0582275390625,-0.5885467529296875,-0.8549041748046875
2.12,0.19022266566753387,-0.018190987408161163,-0.0046299053356051445,0.0496063232421875,-0.59503173828125,-0.8575439453125
2.14,0.18149788677692413,-0.016876185312867165,-0.032770462334156036,0.0553436279296875,-0.5940704345703125,-0.842742919921875
2.16,0.05164455249905586,-0.02496260777115822,-0.08558787405490875,0.06134033203125,-0.6119537353515625,-0.7972564697265625
2.18,-0.06725866347551346,-0.018484733998775482,-0.11895009130239487,0.063934326171875,-0.6378021240234375,-0.7508392333984375
2.2,-0.08592981845140457,0.0022367890924215317,-0.11290870606899261,0.082061767578125,-0.6403045654296875,-0.747222900390625
2.22,-0.0943392887711525,-0.06161116436123848,-0.06554678827524185,0.0968017578125,-0.635894775390625,-0.7674102783203125
2.24,-0.08758577704429626,-0.08182162791490555,-0.03620327636599541,0.0905303955078125,-0.639434814453125,-0.7737274169921875
2.26,-0.05242912098765373,-0.06131022796034813,-0.05462969094514847,0.0625152587890625,-0.64971923828125,-0.7888946533203125
2.28,-0.025473136454820633,-0.04313468560576439,-0.09717288613319397,0.04058837890625,-0.6547393798828125,-0.8054962158203125
2.3,0.007724498864263296,-0.026814304292201996,-0.10359030961990356,0.0422210693359375,-0.644012451171875,-0.8007049560546875
2.32,0.05793707072734833,0.009248359128832817,-0.06275259703397751,0.0622711181640625,-0.61077880859375,-0.7911529541015625
2.34,0.0918407067656517,0.05572318285703659,-0.009770605713129044,0.095062255859375,-0.5743865966796875,-0.791778564453125
2.36,0.05084959790110588,0.05843934044241905,0.018021877855062485,0.1229248046875,-0.5665283203125,-0.7769775390625
2.38,-0.043354663997888565,0.05765930190682411,0.031200796365737915,0.1309356689453125,-0.564910888671875,-0.7506561279296875
2.4,-0.09561387449502945,0.09311822801828384,0.05068421736359596,0.12518310546875,-0.557403564453125,-0.7452545166015625
2.42,-0.13220436871051788,0.13585104048252106,0.06433318555355072,0.121124267578125,-0.545135498046875,-0.7674407958984375
2.44,-0.1854308396577835,0.13514210283756256,0.04002145305275917,0.1193695068359375,-0.55035400390625,-0.7813262939453125
2.46,-0.17462293803691864,0.16954295337200165,-0.010015882551670074,0.105743408203125,-0.565460205078125,-0.787994384765625
2.48,-0.14242452383041382,0.19813892245292664,-0.06464104354381561,0.07806396484375,-0.5803985595703125,-0.822540283203125
2.5,-0.09356962889432907,0.16431890428066254,-0.08943720161914825,0.0642852783203125,-0.591217041015625,-0.8377685546875
2.52,-0.010864632204174995,0.09054907411336899,-0.0824139192700386,0.0753021240234375,-0.5932769775390625,-0.8463287353515625
2.54,0.09220129996538162,0.07867830246686935,-0.0716416984796524,0.071868896484375,-0.5863800048828125,-0.85552978515625
2.56,0.15962587296962738,0.07001716643571854,-0.08170418441295624,0.0695037841796875,-0.584136962890625,-0.863189697265625
2.58,0.10425636172294617,0.15496614575386047,-0.19116783142089844,0.0617523193359375,-0.5971221923828125,-0.8470001220703125
2.6,-0.023865917697548866,0.24100781977176666,-0.3091075122356415,0.05010986328125,-0.6354522705078125,-0.81146240234375
2.62,-0.07119135558605194,0.15982268750667572,-0.2997949719429016,0.0682830810546875,-0.65777587890625,-0.7853546142578125
2.64,0.0244321059435606,0.0013081447687000036,-0.1899542212486267,0.129852294921875,-0.65557861328125,-0.790191650390625
2.66,0.16078008711338043,-0.1253693699836731,-0.09977692365646362,0.171417236328125,-0.6516571044921875,-0.82049560546875
2.68,0.2961917221546173,-0.2064245492219925,-0.05802655220031738,0.1466827392578125,-0.6545257568359375,-0.8230438232421875
2.7,0.3895570933818817,-0.1980675458908081,-0.09822829812765121,0.1153106689453125,-0.6754302978515625,-0.822784423828125
2.72,0.4160105288028717,-0.13153912127017975,-0.1399533748626709,0.0929412841796875,-0.697509765625,-0.81817626953125
2.74,0.3880782425403595,-0.09764453768730164,-0.14435744285583496,0.098175048828125,-0.6985321044921875,-0.7931976318359375
2.76,0.3738548159599304,-0.16558682918548584,-0.12047687917947769,0.117706298828125,-0.689910888671875,-0.754302978515625
2.78,0.40347743034362793,-0.26180604100227356,-0.0648447796702385,0.14599609375,-0.6906280517578125,-0.74169921875
2.8,0.3959769010543823,-0.24867160618305206,-0.036253612488508224,0.1742401123046875,-0.692352294921875,-0.7561492919921875
2.82,0.29672273993492126,-0.16769924759864807,-0.03297845646739006,0.1690521240234375,-0.6891326904296875,-0.7656097412109375
2.84,0.2252698689699173,-0.20324020087718964,-0.05775091424584389,0.16552734375,-0.70196533203125,-0.758148193359375
2.86,0.26841387152671814,-0.31096240878105164,-0.07293785363435745,0.1647186279296875,-0.700286865234375,-0.7684478759765625
2.88,0.32242172956466675,-0.34515607357025146,-0.08826248347759247,0.162506103515625,-0.68878173828125,-0.80706787109375
2.9,0.4614288806915283,-0.19272658228874207,-0.05096171796321869,0.1286468505859375,-0.6547393798828125,-0.8312530517578125
2.92,0.6760770082473755,-0.05733466148376465,-0.006725280545651913,0.1222076416015625,-0.6206207275390625,-0.8637237548828125
2.94,0.8183462619781494,-0.11149377375841141,0.06405887752771378,0.135467529296875,-0.5766754150390625,-0.8354034423828125
2.96,0.8006412982940674,-0.21220174431800842,0.10498607158660889,0.1627044677734375,-0.567535400390625,-0.755615234375
2.98,0.6402705311775208,-0.2615402638912201,0.09175814688205719,0.14727783203125,-0.5760955810546875,-0.6867523193359375
3,0.47296595573425293,-0.1950395256280899,0.06067826226353645,0.1139068603515625,-0.60205078125,-0.664947509765625
3.02,0.39436569809913635,-0.07033674418926239,-0.004043211229145527,0.0868377685546875,-0.609344482421875,-0.6796875
3.04,0.31136399507522583,-0.03725229576230049,-0.06586237251758575,0.0648651123046875,-0.600799560546875,-0.7008514404296875
3.06,0.21315701305866241,-0.07448381930589676,-0.125411719083786,0.06097412109375,-0.6033935546875,-0.6834869384765625
3.08,0.18401378393173218,0.013315006159245968,-0.19055983424186707,0.051300048828125,-0.6122589111328125,-0.680694580078125
3.1,0.1725909411907196,0.1587398499250412,-0.20349080860614777,0.042938232421875,-0.6137237548828125,-0.708526611328125
3.12,0.1163519099354744,0.1749987155199051,-0.10639221966266632,0.082489013671875,-0.6023101806640625,-0.701446533203125
3.14,0.04240844398736954,0.08495031297206879,0.048405349254608154,0.157806396484375,-0.6096649169921875,-0.6617889404296875
3.16,0.05053028464317322,-0.003456783015280962,0.12154081463813782,0.183624267578125,-0.625457763671875,-0.6383209228515625
3.18,0.10941730439662933,-0.03297073394060135,0.0965513065457344,0.1523284912109375,-0.6616058349609375,-0.6611785888671875
3.2,0.10582336783409119,-0.0032320122700184584,0.05748699605464935,0.108856201171875,-0.69903564453125,-0.68353271484375
3.22,0.007985488511621952,0.06267909705638885,0.02285951003432274,0.09503173828125,-0.7410888671875,-0.654083251953125
3.24,-0.08469171822071075,0.11211934685707092,0.04950736463069916,0.09503173828125,-0.7410888671875,-0.654083251953125
3.26,-0.11032410711050034,0.14095285534858704,0.07293279469013214,0.110107421875,-0.74053955078125,-0.6753692626953125
3.28,-0.11325625330209732,0.1272895187139511,0.03286207467317581,0.110107421875,-0.74053955078125,-0.6753692626953125
3.3,-0.13634265959262848,0.09410679340362549,-0.037615817040205,0.0958251953125,-0.7548675537109375,-0.676605224609375
3.32,-0.2110147625207901,0.0981832891702652,-0.06694068759679794,0.093780517578125,-0.762542724609375,-0.667022705078125
3.34,-0.2825014591217041,0.2102815955877304,-0.03960946202278137,0.1057891845703125,-0.733673095703125,-0.6602020263671875
3.36,-0.3136380910873413,0.33066633343696594,-0.0014788532862439752,0.1327056884765625,-0.6956024169921875,-0.6754150390625
3.38,-0.27671894431114197,0.4058772027492523,0.06156748905777931,0.151580810546875,-0.654083251953125,-0.687896728515625
3.4,-0.19448399543762207,0.38918477296829224,0.1591569036245346,0.1873779296875,-0.6253509521484375,-0.699737548828125
3.42,-0.15469317138195038,0.3144279718399048,0.30253830552101135,0.228179931640625,-0.586029052734375,-0.691192626953125
3.44,-0.3422910273075104,0.2902158498764038,0.468219131231308,0.266845703125,-0.54302978515625,-0.6654510498046875
3.46,-0.5543407201766968,0.4273225665092468,0.6637758612632751,0.2766876220703125,-0.5184783935546875,-0.6153717041015625
3.48,-0.6254929304122925,0.4516875743865967,0.8238110542297363,0.26531982421875,-0.5090789794921875,-0.612762451171875
3.5,-0.639959454536438,0.4309402108192444,0.9036779403686523,0.2477264404296875,-0.511932373046875,-0.64617919921875
3.52,-0.652872622013092,0.24764016270637512,1.027735710144043,0.206939697265625,-0.5446014404296875,-0.6494293212890625
3.54,-0.6593608856201172,-0.015966981649398804,1.3645694255828857,0.16717529296875,-0.571990966796875,-0.661163330078125
3.56,-0.6017225980758667,-0.20444448292255402,1.4992637634277344,0.137969970703125,-0.69842529296875,-0.715484619140625
3.58,-0.433586061000824,-0.34142816066741943,1.1042147874832153,-0.0844268798828125,-0.929290771484375,-0.79248046875
3.6,-0.27322009205818176,-0.18605881929397583,0.524971604347229,-0.3662872314453125,-1.03253173828125,-0.87127685546875
3.62,-0.18227046728134155,0.04822159186005592,0.012562663294374943,-0.4245758056640625,-0.958343505859375,-0.83880615234375
3.64,-0.1686108559370041,0.22588825225830078,-0.2509360909461975,-0.214202880859375,-0.8467559814453125,-0.78448486328125
3.66,-0.17692257463932037,0.26941150426864624,-0.296366423368454,-0.214202880859375,-0.8467559814453125,-0.78448486328125
3.68,-0.17088200151920319,0.1350233256816864,-0.27917730808258057,-0.040679931640625,-0.75250244140625,-0.7425994873046875
3.7,-0.13484543561935425,0.011860920116305351,-0.2585442066192627,0.04425048828125,-0.6695098876953125,-0.7249755859375
3.72,-0.0917658731341362,0.002383529208600521,-0.19534899294376373,0.0990753173828125,-0.6127471923828125,-0.7437591552734375
3.74,-0.057793524116277695,0.044374387711286545,-0.09151899814605713,0.1468048095703125,-0.563568115234375,-0.766815185546875
3.76,-0.05450265482068062,0.10397060960531235,0.029276395216584206,0.1601715087890625,-0.5347137451171875,-0.77667236328125
3.78,-0.12365323305130005,0.03761288896203041,0.15434056520462036,0.163299560546875,-0.5395965576171875,-0.76556396484375
3.8,-0.17743843793869019,-0.07636720687150955,0.1894245147705078,0.1320343017578125,-0.57080078125,-0.7366943359375
3.82,-0.1810494065284729,-0.15706871449947357,0.10892675071954727,0.0538330078125,-0.625,-0.7484130859375
3.84,-0.15900856256484985,-0.15342657268047333,-0.02822444774210453,-0.03240966796875,-0.6754913330078125,-0.7740478515625
3.86,-0.07834780216217041,-0.009811085648834705,-0.1567733734846115,-0.08837890625,-0.705657958984375,-0.7970428466796875
3.88,0.008958075195550919,0.10919439792633057,-0.2143772691488266,-0.090362548828125,-0.6968231201171875,-0.83209228515625
3.9,0.04759494960308075,0.014903848059475422,-0.1875286102294922,-0.0380401611328125,-0.6605377197265625,-0.826904296875
3.92,0.03551192209124565,-0.06895855814218521,-0.12453261017799377,0.0897369384765625,-0.59124755859375,-0.7656707763671875
3.94,-0.009959157556295395,-0.08737192302942276,-0.06047399714589119,0.0897369384765625,-0.59124755859375,-0.7656707763671875
3.96,-0.06345727294683456,-0.05072017014026642,-0.016809606924653053,0.1074676513671875,-0.57733154296875,-0.7697296142578125
3.98,-0.09474968165159225,-0.08649387955665588,0.009150887839496136,0.1025238037109375,-0.5873870849609375,-0.773040771484375
4,-0.07305317372083664,-0.0950455591082573,0.049612559378147125,0.0980987548828125,-0.596466064453125,-0.7784271240234375
4.02,-0.02070447988808155,-0.07290749996900558,0.09137838333845139,0.094146728515625,-0.6038055419921875,-0.80059814453125
4.04,0.027341343462467194,-0.045885734260082245,0.11027777194976807,0.0744476318359375,-0.5981292724609375,-0.8139495849609375
4.06,0.07376983016729355,-0.02310105785727501,0.09545382112264633,0.0516204833984375,-0.6048736572265625,-0.810791015625
4.08,0.07627400010824203,-0.03449006751179695,0.054488275200128555,0.0248870849609375,-0.614776611328125,-0.8119964599609375
4.1,0.07293759286403656,-0.02161235176026821,0.022113557904958725,-0.0013427734375,-0.626739501953125,-0.80059814453125
4.12,0.052855756133794785,-0.025731995701789856,0.00299259414896369,0.0124969482421875,-0.6317596435546875,-0.783538818359375
4.14,0.03272359073162079,-0.0318138562142849,-0.0076097166165709496,0.0124969482421875,-0.6317596435546875,-0.783538818359375
4.16,0.014929681085050106,-0.05223018303513527,-0.00865926779806614,0.020751953125,-0.6277923583984375,-0.778778076171875
4.18,0.03130466118454933,-0.03763020038604736,-0.012656672857701778,0.01904296875,-0.618194580078125,-0.7970123291015625
4.2,0.05898582190275192,-0.0137802604585886,-0.02383209578692913,0.01904296875,-0.618194580078125,-0.7970123291015625
4.22,0.05878901481628418,-0.013003682717680931,-0.033361684530973434,0.0159149169921875,-0.6226654052734375,-0.800079345703125
4.24,0.05404219776391983,-0.014568556100130081,-0.04996063560247421,0.0247802734375,-0.63525390625,-0.7832489013671875
4.26,0.03778785839676857,-0.04055861011147499,-0.0524219274520874,0.026641845703125,-0.63751220703125,-0.7712860107421875
4.28,0.020845361053943634,-0.055806808173656464,-0.04352350905537605,0.0351715087890625,-0.6350555419921875,-0.762115478515625
4.3,0.0036392095498740673,0.004026167094707489,-0.04652915149927139,0.0351715087890625,-0.6350555419921875,-0.762115478515625
4.32,-0.0027798074297606945,0.030161896720528603,-0.04043610766530037,0.03753662109375,-0.640228271484375,-0.777862548828125
4.34,0.011593272909522057,0.008549279533326626,-0.01860217936336994,0.04534912109375,-0.633758544921875,-0.783782958984375
4.36,0.0485379733145237,-0.023558322340250015,0.019180351868271828,0.0508575439453125,-0.6183624267578125,-0.788421630859375
4.38,0.09106812626123428,0.004807804711163044,0.05300809070467949,0.056304931640625,-0.605560302734375,-0.793426513671875
4.4,0.08566910028457642,0.031798675656318665,0.055923186242580414,0.04931640625,-0.6009979248046875,-0.7891387939453125
4.42,0.011627893894910812,-0.017179252579808235,0.06789223104715347,0.03558349609375,-0.6128387451171875,-0.7628631591796875
4.44,-0.03666400536894798,-0.0433056615293026,0.07706096023321152,0.040496826171875,-0.6330413818359375,-0.733428955078125
4.46,0.00027803401462733746,-0.011808722279965878,0.06977108865976334,0.0284576416015625,-0.6404266357421875,-0.750762939453125
4.48,0.02586754970252514,0.017589645460247993,0.06018025055527687,0.013092041015625,-0.6400604248046875,-0.7873382568359375
4.5,0.028629513457417488,0.022473616525530815,0.035109251737594604,0.0062408447265625,-0.64483642578125,-0.781341552734375
4.52,-0.0039015309885144234,-0.018543057143688202,0.028752019628882408,0.008392333984375,-0.65496826171875,-0.763885498046875
4.54,-0.07730837166309357,-0.05187970772385597,0.04586895555257797,0.02447509765625,-0.6508026123046875,-0.74951171875
4.56,-0.09556274116039276,-0.02191009186208248,0.07084780931472778,0.0331573486328125,-0.6325531005859375,-0.7467041015625
4.58,-0.05801296979188919,0.06277922540903091,0.08115583658218384,0.02679443359375,-0.6129302978515625,-0.772186279296875
4.6,-0.08445336669683456,0.050989679992198944,0.07156446576118469,0.0186004638671875,-0.603790283203125,-0.7903900146484375
4.62,-0.17722511291503906,-0.026258502155542374,0.11243599653244019,0.049163818359375,-0.6391448974609375,-0.727630615234375
4.64,-0.24987082183361053,-0.0898561179637909,0.1619899719953537,0.049163818359375,-0.6391448974609375,-0.727630615234375
4.66,-0.24237322807312012,-0.1446615755558014,0.2021150141954422,0.0413055419921875,-0.642242431640625,-0.740692138671875
4.68,-0.1611470729112625,-0.12417254596948624,0.21598049998283386,0.0316162109375,-0.6408843994140625,-0.7808380126953125
4.7,-0.06480775773525238,-0.08654741197824478,0.16013693809509277,-0.0072479248046875,-0.6400146484375,-0.8214569091796875
4.72,0.016531838104128838,-0.04310059919953346,0.08549386262893677,-0.054107666015625,-0.651397705078125,-0.8442535400390625
4.74,0.04231629893183708,-0.025545306503772736,0.033012278378009796,-0.0578460693359375,-0.661376953125,-0.83294677734375
4.76,0.03422694653272629,-0.05511944368481636,0.013831393793225288,-0.03167724609375,-0.648895263671875,-0.8063507080078125
4.78,-0.014808773063123226,-0.12454645335674286,0.021917017176747322,0.0061187744140625,-0.628631591796875,-0.780181884765625
4.8,-0.00812264159321785,-0.11727841943502426,0.010236125439405441,0.0191650390625,-0.605865478515625,-0.7703094482421875
4.82,0.09176986664533615,-0.00788322277367115,-0.02768196165561676,-0.0068511962890625,-0.5945892333984375,-0.80584716796875
4.84,0.14739584922790527,0.09213871508836746,-0.015978699550032616,-0.018157958984375,-0.59332275390625,-0.8431549072265625
4.86,0.12786369025707245,0.0745711699128151,0.0007456850726157427,0.003387451171875,-0.5916290283203125,-0.8211517333984375
4.88,0.11500115692615509,-0.000046339002437889576,-0.020062124356627464,0.0084686279296875,-0.600799560546875,-0.7682647705078125
4.9,0.1042981743812561,-0.06262876093387604,-0.042574092745780945,0.0017852783203125,-0.6164703369140625,-0.7561492919921875
4.92,0.08517268300056458,-0.08144452422857285,-0.03885898366570473,-0.0025634765625,-0.6218414306640625,-0.7617645263671875
4.94,0.08609094470739365,-0.05440385267138481,-0.04770893231034279,-0.0082550048828125,-0.617431640625,-0.774993896484375
4.96,0.08978980779647827,-0.018000571057200432,-0.06627649068832397,-0.02337646484375,-0.6184539794921875,-0.788330078125
4.98,0.0879192054271698,-0.04188033938407898,-0.10575758665800095,-0.0374755859375,-0.639801025390625,-0.791046142578125
5,0.10428406298160553,-0.0697425976395607,-0.1550431102514267,-0.0374755859375,-0.639801025390625,-0.791046142578125
5.02,0.14209802448749542,-0.05020245164632797,-0.1910296082496643,-0.0320281982421875,-0.6444549560546875,-0.7933807373046875
5.04,0.18476611375808716,-0.03719610348343849,-0.18508197367191315,-0.01666259765625,-0.640380859375,-0.8020172119140625
5.06,0.21246246993541718,-0.07901199162006378,-0.14299124479293823,0.0116424560546875,-0.63165283203125,-0.791900634765625
5.08,0.22410207986831665,-0.13270984590053558,-0.10962130129337311,0.03826904296875,-0.625030517578125,-0.7747650146484375
5.1,0.2570887804031372,-0.1374063342809677,-0.09275257587432861,0.0369720458984375,-0.628082275390625,-0.767608642578125
5.12,0.24613147974014282,-0.11489170044660568,-0.10923168063163757,0.023712158203125,-0.632720947265625,-0.7722320556640625
5.14,0.22068177163600922,-0.08531969040632248,-0.1263856291770935,0.0010528564453125,-0.6427154541015625,-0.75201416015625
5.16,0.13922765851020813,-0.10863327234983444,-0.15557441115379333,-0.006744384765625,-0.6597137451171875,-0.7369842529296875
5.18,0.05759751424193382,-0.0985148549079895,-0.18288272619247437,-0.01690673828125,-0.6750946044921875,-0.7142486572265625
5.2,0.012102202512323856,-0.0544603131711483,-0.2096983641386032,-0.022979736328125,-0.6810150146484375,-0.7143707275390625
5.22,-0.007858987897634506,-0.016687100753188133,-0.2288891077041626,-0.0205078125,-0.6807708740234375,-0.732025146484375
5.24,0.019628562033176422,0.01690042018890381,-0.21562230587005615,-0.01226806640625,-0.67926025390625,-0.73919677734375
5.26,0.03646107017993927,-0.005345763172954321,-0.18851877748966217,0.0101776123046875,-0.6634368896484375,-0.748321533203125
5.28,0.04482872411608696,-0.035713255405426025,-0.15206649899482727,0.030242919921875,-0.6544647216796875,-0.740142822265625
5.3,0.0024077638518065214,-0.011022024787962437,-0.12404924631118774,0.0444183349609375,-0.645751953125,-0.7364959716796875
5.32,-0.04494936391711235,0.012521117925643921,-0.09789913147687912,0.0484771728515625,-0.63970947265625,-0.7256927490234375
5.34,-0.05662013590335846,0.04349794238805771,-0.056878462433815,0.0590057373046875,-0.6397552490234375,-0.7262420654296875
5.36,-0.03749144822359085,0.03897323086857796,0.014238590374588966,0.0712432861328125,-0.6322479248046875,-0.73968505859375
5.38,-0.012254535220563412,0.015016499906778336,0.07204143702983856,0.0852508544921875,-0.6235504150390625,-0.7493743896484375
5.4,-0.020308999344706535,0.001916144392453134,0.10285394638776779,0.07891845703125,-0.6291046142578125,-0.7536163330078125
5.42,-0.030242856591939926,0.0013760552974417806,0.12087235599756241,0.0526275634765625,-0.63726806640625,-0.7545623779296875
5.44,-0.004148139618337154,-0.011669705621898174,0.12940193712711334,0.033935546875,-0.6480255126953125,-0.759368896484375
5.46,0.028419656679034233,-0.03933542221784592,0.12848074734210968,0.0135650634765625,-0.6549072265625,-0.770721435546875
5.48,0.03139787167310715,-0.06813191622495651,0.11317555606365204,-0.0043182373046875,-0.6660919189453125,-0.77337646484375
5.5,0.0243692547082901,-0.1027948185801506,0.08019629865884781,-0.022369384765625,-0.67022705078125,-0.76995849609375
5.52,0.05944681540131569,-0.0676962211728096,0.012711800634860992,-0.04461669921875,-0.6723785400390625,-0.7714385986328125
5.54,0.10603561997413635,-0.03626532852649689,-0.032234903424978256,-0.0556793212890625,-0.6722259521484375,-0.7921142578125
5.56,0.08581557124853134,-0.06444770097732544,-0.034208305180072784,-0.0406494140625,-0.6636810302734375,-0.7809295654296875
5.58,0.053399309515953064,-0.09042923152446747,-0.011406319215893745,-0.013519287109375,-0.6591796875,-0.743133544921875
5.6,0.04261856526136398,-0.05469440296292305,-0.01227770559489727,0.008697509765625,-0.6578826904296875,-0.73492431640625
5.62,0.016396816819906235,-0.043244410306215286,-0.04030001908540726,0.0035552978515625,-0.654937744140625,-0.7390289306640625
5.64,-0.01588788628578186,-0.031157920137047768,-0.0560946948826313,-0.008270263671875,-0.66290283203125,-0.735260009765625
5.66,-0.04433523863554001,-0.015321165323257446,-0.02605743333697319,0.005767822265625,-0.6640472412109375,-0.7313385009765625
5.68,-0.0632745772600174,-0.019088473170995712,0.012495552189648151,0.0212554931640625,-0.6602935791015625,-0.73419189453125
5.7,-0.05806063860654831,-0.026632942259311676,0.04295146092772484,0.029876708984375,-0.656951904296875,-0.7364654541015625
5.72,-0.04343269392848015,-0.0031521173659712076,0.031673505902290344,0.0217437744140625,-0.6573944091796875,-0.748748779296875
5.74,-0.049738261848688126,-0.009133310988545418,0.02100514993071556,0.0038909912109375,-0.663848876953125,-0.758270263671875
5.76,-0.04926794767379761,-0.029402364045381546,0.023578297346830368,0.0001068115234375,-0.667938232421875,-0.7525177001953125
5.78,-0.037644580006599426,-0.032220520079135895,0.037393178790807724,0.0028076171875,-0.6622314453125,-0.7537689208984375
5.8,-0.020330306142568588,-0.029415680095553398,0.04607241973280907,0.0014190673828125,-0.65582275390625,-0.7634735107421875
5.82,-0.012984774075448513,-0.032517462968826294,0.04904237762093544,-0.00006103515625,-0.652313232421875,-0.7670440673828125
5.84,0.005512476898729801,-0.0007896272582001984,0.035711392760276794,-0.0044708251953125,-0.650970458984375,-0.7624664306640625
5.86,0.037873879075050354,0.009465939365327358,0.003995540551841259,-0.0179443359375,-0.6548919677734375,-0.767333984375
5.88,0.0564531572163105,0.02309679612517357,-0.018216554075479507,-0.0335235595703125,-0.6614227294921875,-0.771270751953125
5.9,0.032950758934020996,0.02376391924917698,-0.025548769161105156,-0.027374267578125,-0.661468505859375,-0.7603912353515625
5.92,0.005345763172954321,0.010943727567791939,-0.026546388864517212,-0.0198516845703125,-0.6602020263671875,-0.7413787841796875
5.94,-0.01630973070859909,0.013538445346057415,-0.026512833312153816,-0.013946533203125,-0.6624603271484375,-0.7327117919921875
5.96,-0.03960919380187988,0.013070528395473957,-0.02213672734797001,-0.0048980712890625,-0.6597747802734375,-0.7340850830078125
5.98,-0.042691271752119064,0.019417906180024147,-0.016641294583678246,-0.005462646484375,-0.6574249267578125,-0.73504638671875
6,-0.018966233357787132,0.041435323655605316,-0.011377024464309216,0.0021514892578125,-0.6567230224609375,-0.7491607666015625
6.02,0.006284527480602264,0.0337505079805851,-0.0070888022892177105,-0.003082275390625,-0.6571044921875,-0.763916015625
6.04,0.021556157618761063,0.0203340332955122,0.004820321686565876,-0.0003814697265625,-0.657562255859375,-0.767822265625
6.06,0.02550935372710228,0.03485625237226486,0.015295066870748997,0.0066375732421875,-0.6567535400390625,-0.7593994140625
6.08,0.020778248086571693,0.05004798620939255,0.006228601094335318,0.003509521484375,-0.6578826904296875,-0.7598876953125
6.1,0.014129401184618473,0.036368392407894135,-0.0030921963043510914,-0.0013275146484375,-0.6616668701171875,-0.7542266845703125
6.12,0.010122675448656082,0.025473402813076973,-0.01125052385032177,-0.0019989013671875,-0.6656646728515625,-0.75
6.14,-0.009108543395996094,0.022305572405457497,-0.019208848476409912,-0.0021514892578125,-0.6657562255859375,-0.745635986328125
6.16,-0.03051876090466976,0.020712202414870262,-0.033973146229982376,-0.0047454833984375,-0.6631927490234375,-0.7408599853515625
6.18,-0.034688472747802734,0.0017827199772000313,-0.029707295820116997,-0.0063018798828125,-0.664154052734375,-0.742431640625
6.2,-0.03550206869840622,0.005109540652483702,-0.012084092944860458,0.0050201416015625,-0.65667724609375,-0.746734619140625
6.22,-0.009845173917710781,0.03166951239109039,0.003599528456106782,0.009857177734375,-0.6497039794921875,-0.7566680908203125
6.24,0.002829342382028699,0.0234102513641119,-0.011660117655992508,0.003753662109375,-0.647003173828125,-0.76910400390625
6.26,-0.00663499953225255,0.005949501879513264,-0.013668940402567387,0.0025482177734375,-0.65313720703125,-0.7581939697265625
6.28,-0.007501858286559582,0.008075503632426262,-0.012919792905449867,0.0023193359375,-0.65570068359375,-0.751373291015625
6.3,-0.010343184694647789,0.0052203284576535225,0.0018583538476377726,-0.00048828125,-0.656494140625,-0.7554779052734375
6.32,0.0012037487467750907,0.004277302883565426,0.004732969682663679,0.0065155029296875,-0.65673828125,-0.7575531005859375
6.34,0.02448776550590992,0.01005156897008419,0.0007725830073468387,0.0025634765625,-0.6546630859375,-0.7642669677734375
6.36,0.04368942230939865,0.0169086754322052,0.000005592638444795739,0.0019683837890625,-0.6544036865234375,-0.7664642333984375
6.38,0.03711221367120743,0.013172261416912079,-0.004185423720628023,0.004058837890625,-0.65618896484375,-0.7634735107421875
6.4,0.020315125584602356,0.0024889903143048286,0.0067239492200315,-0.0008087158203125,-0.6557159423828125,-0.753509521484375
6.42,-0.007636614143848419,-0.005151618737727404,-0.005351089406758547,0.006378173828125,-0.656402587890625,-0.74505615234375
6.44,-0.021350828930735588,0.002561161993071437,-0.02104935795068741,-0.003448486328125,-0.6604461669921875,-0.739776611328125
6.46,-0.015118765644729137,0.013177587650716305,-0.033306024968624115,-0.0115814208984375,-0.6645965576171875,-0.74554443359375
6.48,0.009706422686576843,0.02424621768295765,-0.03672365844249725,-0.0088958740234375,-0.66387939453125,-0.753631591796875
6.5,0.012742693535983562,0.012949620373547077,-0.030304908752441406,0.00946044921875,-0.6600189208984375,-0.753814697265625
6.52,0.012565859593451023,0.0002932140196207911,-0.01401541754603386,0.00946044921875,-0.6600189208984375,-0.753814697265625
6.54,0.009562612511217594,0.0036277580074965954,0.000005060006060375599,0.0189056396484375,-0.6591644287109375,-0.7552032470703125
6.56,0.012836703099310398,-0.00971334706991911,-0.003921770956367254,0.0168609619140625,-0.65496826171875,-0.7598114013671875
6.58,0.047020506113767624,0.0116750318557024,-0.01080071646720171,0.004425048828125,-0.6593475341796875,-0.76220703125
6.6,0.0690336599946022,0.03622165322303772,-0.0011222560424357653,0.0032501220703125,-0.658966064453125,-0.7750244140625
6.62,0.06631936877965927,0.012228969484567642,-0.004580903332680464,0.0074462890625,-0.65618896484375,-0.769317626953125
6.64,0.03050864115357399,0.0012932310346513987,-0.0095658078789711,0.0059356689453125,-0.6613311767578125,-0.74542236328125
6.66,-0.012471583671867847,0.0022186795249581337,-0.007841411046683788,0.0071258544921875,-0.65765380859375,-0.7306365966796875
6.68,-0.02634691819548607,0.002016545506194234,-0.017430922016501427,0.002593994140625,-0.6595306396484375,-0.73028564453125
6.7,-0.017580324783921242,0.029862824827432632,-0.02117585949599743,0,-0.6641082763671875,-0.740264892578125
6.72,0.00040080572944134474,0.02040380798280239,-0.01732306368649006,0.0002593994140625,-0.661651611328125,-0.7567596435546875
6.74,-0.005166532471776009,-0.006849383935332298,-0.0011917646043002605,0.01226806640625,-0.658905029296875,-0.754486083984375
6.76,0.001871136948466301,0.005997172556817532,0.006216616835445166,0.0180511474609375,-0.658935546875,-0.7545166015625
6.78,0.016226639971137047,0.032106801867485046,0.007580954115837812,0.0150604248046875,-0.65667724609375,-0.7590789794921875
6.8,0.016766462475061417,0.03833753615617752,0.005664543714374304,0.0081939697265625,-0.6568756103515625,-0.7648773193359375
6.82,0.021272797137498856,0.03681953251361847,0.008420116268098354,0.0093536376953125,-0.661529541015625,-0.7617645263671875
6.84,0.030405042693018913,0.004494883120059967,0.01073999609798193,0.0106048583984375,-0.66241455078125,-0.756561279296875
6.86,0.04964505136013031,0.016413593664765358,0.004455202259123325,0.00897216796875,-0.6660003662109375,-0.755462646484375
6.88,0.05119181424379349,0.05430158972740173,-0.005883188918232918,0.00384521484375,-0.663787841796875,-0.7596893310546875
6.9,0.02701031230390072,0.0379822701215744,-0.0134452348574996,-0.001251220703125,-0.66375732421875,-0.7519989013671875
6.92,0.0023582291323691607,-0.02111460641026497,-0.009283246472477913,0.015045166015625,-0.6642913818359375,-0.732635498046875
6.94,0.015088671818375587,-0.012538961134850979,0.0017411747248843312,0.015045166015625,-0.6642913818359375,-0.732635498046875
6.96,0.03599954769015312,-0.002927080262452364,0.028834044933319092,0.0185394287109375,-0.6590728759765625,-0.7505645751953125
6.98,0.03766481950879097,0.004876248072832823,0.03405304253101349,0.0134429931640625,-0.65838623046875,-0.73828125
7,-0.0031824775505810976,-0.03284876048564911,0.004325772635638714,0.0134429931640625,-0.65838623046875,-0.73828125
7.02,-0.041839856654405594,-0.038054972887039185,-0.014585866592824459,0.0093231201171875,-0.6719818115234375,-0.71917724609375
7.04,-0.022591328248381615,-0.01926184445619583,-0.0008753810543566942,0.012786865234375,-0.6778717041015625,-0.730010986328125
7.06,0.016653811559081078,-0.02286883071064949,0.03380643203854561,0.030029296875,-0.6657867431640625,-0.7545318603515625
7.08,0.03605760261416435,-0.07624470442533493,0.06355846673250198,0.046600341796875,-0.65936279296875,-0.7578277587890625
7.1,0.08709202706813812,-0.06966909021139145,0.06996922940015793,0.0388031005859375,-0.659820556640625,-0.756256103515625
7.12,0.14388367533683777,-0.026761306449770927,0.06266418099403381,0.02008056640625,-0.66217041015625,-0.7768096923828125
7.14,0.1627092808485031,0.011433749459683895,0.04963812604546547,-0.0013427734375,-0.660614013671875,-0.7810516357421875
7.16,0.1313825249671936,-0.01745648868381977,0.02064056321978569,-0.0164794921875,-0.6637725830078125,-0.7551727294921875
7.18,0.0858808159828186,-0.021039238199591637,-0.009432650171220303,-0.0217437744140625,-0.6708831787109375,-0.7231903076171875
7.2,0.07047203928232193,-0.012369051575660706,-0.023814784362912178,-0.024566650390625,-0.674346923828125,-0.71331787109375
7.22,0.03466157242655754,0.006228601094335318,-0.032652486115694046,-0.021270751953125,-0.6715240478515625,-0.719390869140625
7.24,-0.02774960547685623,-0.01846662536263466,-0.024923725053668022,-0.0110931396484375,-0.673828125,-0.706085205078125
7.26,-0.07270003855228424,-0.04381512477993965,-0.010687798261642456,0.001373291015625,-0.67535400390625,-0.69732666015625
7.28,-0.07990202307701111,-0.05126132443547249,0.012685434892773628,0.0082244873046875,-0.6708221435546875,-0.7141265869140625
7.3,-0.0517398938536644,-0.02737782895565033,0.029887324199080467,0.0115203857421875,-0.6672515869140625,-0.7418670654296875
7.32,-0.013213805854320526,0.00621129060164094,0.030735541135072708,0.00384521484375,-0.660980224609375,-0.76007080078125
7.34,0.0018668759148567915,-0.001645567244850099,0.041974347084760666,0.0141754150390625,-0.6638336181640625,-0.752593994140625
7.36,-0.01212617103010416,-0.033962227404117584,0.07772275805473328,0.0141754150390625,-0.6638336181640625,-0.752593994140625
7.38,-0.00806058943271637,-0.05044826120138168,0.10233675688505173,0.0251312255859375,-0.661834716796875,-0.741973876953125
7.4,0.020081300288438797,-0.05253538116812706,0.12417867034673691,0.0166168212890625,-0.6616058349609375,-0.7454376220703125
7.42,0.07712115347385406,-0.011086473241448402,0.12529373168945312,-0.01324462890625,-0.6559906005859375,-0.7689056396484375
7.44,0.11060933768749237,0.010971956886351109,0.10934619605541229,-0.01324462890625,-0.6559906005859375,-0.7689056396484375
7.46,0.11554523557424545,0.01293284259736538,0.08428585529327393,-0.032745361328125,-0.66607666015625,-0.7529296875
7.48,0.06860729306936264,-0.04008350521326065,0.06793537735939026,-0.0340118408203125,-0.675018310546875,-0.7288665771484375
7.5,0.004757204558700323,-0.10480417311191559,0.04138072952628136,-0.03704833984375,-0.68328857421875,-0.7034149169921875
7.52,-0.03262398764491081,-0.07647639513015747,0.004173705819994211,-0.046356201171875,-0.693450927734375,-0.6964569091796875
7.54,-0.04055701196193695,-0.003203516360372305,-0.035532161593437195,-0.0543975830078125,-0.6973114013671875,-0.71954345703125
7.56,-0.04448384419083595,0.026667030528187752,-0.07266487926244736,-0.060333251953125,-0.69580078125,-0.7369842529296875
7.58,-0.048462074249982834,0.030899325385689735,-0.09000259637832642,-0.0520477294921875,-0.6920166015625,-0.731109619140625
7.6,-0.05793014541268349,0.031004521995782852,-0.07673978805541992,-0.031005859375,-0.68426513671875,-0.7266998291015625
7.62,-0.07683965563774109,0.023391608148813248,-0.03484213724732399,-0.00341796875,-0.67242431640625,-0.72357177734375
7.64,-0.06995031982660294,0.026036661118268967,-0.0020013656467199326,0.0152435302734375,-0.6622467041015625,-0.7274932861328125
7.66,-0.054490137845277786,0.055020641535520554,0.01727858930826187,0.0139617919921875,-0.654815673828125,-0.74688720703125
7.68,-0.05470532178878784,0.0362943597137928,0.045573875308036804,0.008544921875,-0.6559600830078125,-0.7532196044921875
7.7,-0.03317419812083244,0.03808639943599701,0.05675036460161209,0.0003814697265625,-0.6545257568359375,-0.751220703125
7.72,0.006905043963342905,0.045753639191389084,0.0410827212035656,-0.0138397216796875,-0.65924072265625,-0.7625274658203125
7.74,0.016401875764131546,0.04578186944127083,0.0214789267629385,-0.026702880859375,-0.666656494140625,-0.7689971923828125
7.76,-0.00788801722228527,0.026391128078103065,0.011590076610445976,-0.03363037109375,-0.67315673828125,-0.7543792724609375
7.78,-0.043594613671302795,0.0027768779546022415,-0.002014415105804801,-0.0303192138671875,-0.6783905029296875,-0.736297607421875
7.8,-0.04676244407892227,-0.008498147130012512,-0.029230322688817978,-0.027862548828125,-0.68109130859375,-0.73370361328125
7.82,-0.007190801203250885,0.00038242992013692856,-0.050816308706998825,-0.0313568115234375,-0.678619384765625,-0.75152587890625
7.84,0.030718764290213585,0.02394607849419117,-0.05417082831263542,-0.0290374755859375,-0.6753997802734375,-0.76947021484375
7.86,0.04258101433515549,0.00863290298730135,-0.050571296364068985,-0.0109100341796875,-0.663970947265625,-0.767303466796875
7.88,0.018878616392612457,-0.02136787213385105,-0.046966977417469025,-0.00347900390625,-0.6609954833984375,-0.7488250732421875
7.9,0.016524381935596466,0.007348194252699614,-0.03916577994823456,0.0041656494140625,-0.661102294921875,-0.7334136962890625
7.92,0.042578086256980896,0.06193660572171211,-0.039737291634082794,-0.0097503662109375,-0.6588592529296875,-0.7562408447265625
7.94,0.05233777314424515,0.08164559304714203,-0.058098990470170975,-0.0097503662109375,-0.6588592529296875,-0.7562408447265625
7.96,0.012338957749307156,0.031316909939050674,-0.05367521196603775,-0.006744384765625,-0.66900634765625,-0.7353363037109375
7.98,-0.03604588657617569,-0.009884588420391083,-0.03507409617304802,0.013092041015625,-0.6755523681640625,-0.70928955078125
8,-0.06323330104351044,0.005915945861488581,-0.02191248908638954,0.013092041015625,-0.6755523681640625,-0.70928955078125
8.02,-0.04776086285710335,0.03976152837276459,-0.007027016952633858,0.0049896240234375,-0.6712493896484375,-0.7324981689453125
8.04,-0.029473736882209778,0.014154967851936817,-0.0010277138790115714,-0.0008392333984375,-0.6706695556640625,-0.7499237060546875
8.06,-0.02154710330069065,-0.012370916083455086,-0.008014516904950142,-0.0000457763671875,-0.6754913330078125,-0.7496490478515625
8.08,0.0029079054947942495,0.006710633169859648,-0.010628942400217056,-0.0017852783203125,-0.674346923828125,-0.74896240234375
8.1,0.03489167243242264,0.03803260251879692,0.0041465419344604015,0.0001983642578125,-0.671356201171875,-0.76397705078125
8.12,0.04427585005760193,0.01673557050526142,0.025798307731747627,0.0085601806640625,-0.662200927734375,-0.76776123046875
8.14,0.032823462039232254,-0.01278743427246809,0.033250365406274796,0.0174407958984375,-0.6611785888671875,-0.745452880859375
8.16,0.03351534903049469,-0.005815810989588499,0.031622376292943954,0.0084381103515625,-0.664215087890625,-0.735321044921875
8.18,0.03960147127509117,0.023017700761556625,0.018805112689733505,-0.0035552978515625,-0.66680908203125,-0.7415008544921875
8.2,0.025669144466519356,0.03321680799126625,-0.005025651305913925,-0.01251220703125,-0.6709442138671875,-0.7424163818359375
8.22,-0.011410580016672611,0.0059420447796583176,-0.034925758838653564,-0.0194854736328125,-0.680450439453125,-0.730133056640625
8.24,-0.02232900820672512,0.020146813243627548,-0.048592571169137955,-0.0252227783203125,-0.685760498046875,-0.7192840576171875
8.26,-0.023196132853627205,0.042454782873392105,-0.04782025143504143,-0.0169525146484375,-0.6804656982421875,-0.734832763671875
8.28,-0.03256300464272499,0.020504210144281387,-0.03448900207877159,-0.00494384765625,-0.6697235107421875,-0.7393341064453125
8.3,-0.048476189374923706,-0.026621490716934204,-0.022301310673356056,0.0057373046875,-0.6685333251953125,-0.7306976318359375
8.32,-0.050765443593263626,-0.022658973932266235,-0.008466987870633602,0.008392333984375,-0.663818359375,-0.7311859130859375
8.34,-0.03773672506213188,0.009155414998531342,0.0062547000125050545,0.0095672607421875,-0.6618194580078125,-0.7498626708984375
8.36,-0.043059851974248886,-0.005472263321280479,0.02178439125418663,0.0070953369140625,-0.658447265625,-0.759979248046875
8.38,-0.05570906773209572,-0.020413927733898163,0.02851153537631035,0.012908935546875,-0.663116455078125,-0.75128173828125
8.4,-0.02744920179247856,-0.02028077095746994,0.030219154432415962,0.0113067626953125,-0.667449951171875,-0.7496795654296875
8.42,0.006566822528839111,-0.03367407247424126,0.04390726983547211,0.0119476318359375,-0.668731689453125,-0.759368896484375
8.44,0.037567347288131714,-0.055572181940078735,0.06562881171703339,0.015777587890625,-0.6665191650390625,-0.7608489990234375
8.46,0.06504664570093155,-0.053293582051992416,0.06764508783817291,0.0151519775390625,-0.6658477783203125,-0.76055908203125
8.48,0.08649734407663345,-0.013820474036037922,0.06181542947888374,-0.0001068115234375,-0.6655731201171875,-0.76849365234375
8.5,0.09421038627624512,0.014758972451090813,0.05216280370950699,-0.0069732666015625,-0.6616973876953125,-0.7664794921875
8.52,0.06897587329149246,-0.0035774242132902145,0.02365206554532051,-0.0068817138671875,-0.66107177734375,-0.748199462890625
8.54,0.023852068930864334,-0.005103681702166796,0.0023483755066990852,-0.0096282958984375,-0.6660919189453125,-0.722198486328125
8.56,0.012974121607840061,0.03531458228826523,0.007095193490386009,-0.0074462890625,-0.668792724609375,-0.7162322998046875
8.58,0.031254593282938004,0.07301349192857742,0.011165834963321686,-0.00390625,-0.6641998291015625,-0.7292327880859375
8.6,0.0034639735240489244,0.039861395955085754,0.012986105866730213,-0.0050201416015625,-0.665863037109375,-0.7295989990234375
8.62,-0.0296055618673563,0.00950775109231472,0.00911786500364542,-0.0125732421875,-0.6741790771484375,-0.7036590576171875
8.64,-0.028615400195121765,-0.0034269557800143957,0.00592473428696394,-0.0279693603515625,-0.6824951171875,-0.7058563232421875
8.66,-0.03488421440124512,-0.022297581657767296,0.02033456601202488,-0.0290069580078125,-0.686065673828125,-0.725250244140625
8.68,-0.07885966449975967,-0.058631621301174164,0.03309004381299019,-0.028076171875,-0.673004150390625,-0.734039306640625
8.7,-0.09794307500123978,-0.09195149689912796,0.026140790432691574,-0.028076171875,-0.673004150390625,-0.734039306640625
8.72,-0.033247701823711395,-0.05874453857541084,-0.0007424892974086106,-0.0356292724609375,-0.6680908203125,-0.764312744140625
8.74,0.0435570627450943,-0.010868893004953861,-0.01877954602241516,-0.0446929931640625,-0.6598968505859375,-0.8101348876953125
8.76,0.07732381671667099,-0.013175190426409245,-0.006039516534656286,-0.0300140380859375,-0.6544342041015625,-0.8111419677734375
8.78,0.07809027284383774,-0.06507620215415955,0.012745089828968048,-0.00250244140625,-0.6531524658203125,-0.77099609375
8.8,0.08612743020057678,-0.07441165298223495,0.031201861798763275,0.00970458984375,-0.6481781005859375,-0.739593505859375
8.82,0.10992463678121567,-0.02594291791319847,0.03942437097430229,0.00994873046875,-0.6488800048828125,-0.7395172119140625
8.84,0.11535801738500595,-0.005992378573864698,0.03596599027514458,-0.00677490234375,-0.6546478271484375,-0.7445068359375
8.86,0.06039942800998688,-0.03837934508919716,0.02107146382331848,-0.0132904052734375,-0.6635284423828125,-0.72149658203125
8.88,0.0031678301747888327,-0.011093397624790668,-0.021022194996476173,-0.019134521484375,-0.6852264404296875,-0.695831298828125
8.9,-0.023679763078689575,0.06290466338396072,-0.08366826176643372,-0.041015625,-0.6967620849609375,-0.70391845703125
8.92,-0.052791841328144073,0.09765785187482834,-0.12975214421749115,-0.0578765869140625,-0.702728271484375,-0.72100830078125
8.94,-0.12534379959106445,0.052922338247299194,-0.12820617854595184,-0.0437469482421875,-0.697113037109375,-0.7097930908203125
8.96,-0.17697930335998535,0.006194779183715582,-0.0996919721364975,-0.0121002197265625,-0.69207763671875,-0.69342041015625
8.98,-0.15107473731040955,0.02666223794221878,-0.0637318417429924,0.0073089599609375,-0.67840576171875,-0.7187347412109375
9,-0.06716092675924301,0.07370244711637497,-0.040342364460229874,0.0095062255859375,-0.6661529541015625,-0.77191162109375
9.02,0.008025169372558594,0.07550141215324402,0.007843541912734509,0.0113372802734375,-0.65484619140625,-0.8089599609375
9.04,0.040699757635593414,0.016402142122387886,0.06077013909816742,0.029754638671875,-0.6483612060546875,-0.798675537109375
9.06,0.08745048940181732,-0.02870301716029644,0.0938979983329773,0.0400543212890625,-0.6486968994140625,-0.774078369140625
9.08,0.1491817682981491,0.004865861497819424,0.09705916792154312,0.0228424072265625,-0.6500701904296875,-0.7776641845703125
9.1,0.1713179498910904,0.02503744326531887,0.08390821516513824,0.0039520263671875,-0.6548309326171875,-0.77783203125
9.12,0.13429389894008636,0.00012117382721044123,0.053882140666246414,-0.01678466796875,-0.6651153564453125,-0.7487640380859375
9.14,0.06442293524742126,-0.010881676338613033,0.03779664635658264,-0.0225372314453125,-0.682159423828125,-0.71282958984375
9.16,0.0018168084789067507,0.008872320875525475,0.013490508310496807,-0.024871826171875,-0.6883087158203125,-0.6993560791015625
9.18,-0.016687633469700813,0.02628646418452263,-0.022887472063302994,-0.03521728515625,-0.6902618408203125,-0.706329345703125
9.2,-0.04417625069618225,0.008521849289536476,-0.043298203498125076,-0.039520263671875,-0.6898956298828125,-0.7175445556640625
9.22,-0.07381190359592438,-0.02359667234122753,-0.034757182002067566,-0.0240325927734375,-0.683837890625,-0.7117919921875
9.24,-0.0715053454041481,-0.026400715112686157,-0.014430871233344078,-0.0061187744140625,-0.67559814453125,-0.71771240234375
9.26,-0.03362560272216797,-0.01037514302879572,0.0057313889265060425,0.003082275390625,-0.6690521240234375,-0.744903564453125
9.28,0.0035369442775845528,-0.0028154938481748104,0.011304319836199284,0.003692626953125,-0.6685943603515625,-0.7667999267578125
9.3,0.037087179720401764,0.0003731088654603809,0.02377616986632347,0.0008392333984375,-0.6744537353515625,-0.769500732421875
9.32,0.0754750519990921,-0.003934021573513746,0.03531484678387642,0.00518798828125,-0.675933837890625,-0.7672882080078125
9.34,0.12714943289756775,0.008096808567643166,0.028309669345617294,-0.001007080078125,-0.6768646240234375,-0.7681121826171875
9.36,0.14328952133655548,0.019337745383381844,0.02575915865600109,-0.012237548828125,-0.677947998046875,-0.7409515380859375
9.38,0.12035437673330307,0.01503940299153328,0.034559041261672974,-0.012237548828125,-0.677947998046875,-0.7409515380859375
9.4,0.06966137140989304,0.0001882854849100113,0.03687892109155655,-0.01043701171875,-0.67889404296875,-0.714019775390625
9.42,0.03308152034878731,-0.019279422238469124,0.02834056131541729,-0.012664794921875,-0.685211181640625,-0.7012939453125
9.44,0.012131230905652046,-0.025004951283335686,0.02486087568104267,-0.024810791015625,-0.689544677734375,-0.70574951171875
9.46,-0.006810501683503389,0.0014769891276955605,0.023869913071393967,-0.022979736328125,-0.68719482421875,-0.716888427734375
9.48,-0.00672341650351882,0.0023427826818078756,0.014104899950325489,-0.029266357421875,-0.6861724853515625,-0.7288818359375
9.5,-0.008218781091272831,-0.058039601892232895,0.01630254089832306,-0.019744873046875,-0.6855316162109375,-0.728973388671875
9.52,0.016590427607297897,-0.07809213548898697,0.0293728020042181,-0.0152435302734375,-0.682952880859375,-0.73077392578125
9.54,0.05865558981895447,-0.057435862720012665,0.061288125813007355,-0.0092010498046875,-0.6762542724609375,-0.747344970703125
9.56,0.08963853865861893,-0.0505065843462944,0.062132079154253006,-0.005157470703125,-0.6703338623046875,-0.7591094970703125
9.58,0.09767968952655792,-0.05528322979807854,0.03257099166512489,-0.0229644775390625,-0.680084228515625,-0.74920654296875
9.6,0.0784790962934494,-0.04748203232884407,0.020078903064131737,-0.031646728515625,-0.689544677734375,-0.733734130859375
9.62,0.04573047161102295,-0.04360553249716759,0.002433596644550562,-0.0329132080078125,-0.68927001953125,-0.7214202880859375
9.64,0.05162324756383896,-0.010303503833711147,-0.022943133488297462,-0.0372161865234375,-0.69268798828125,-0.7152557373046875
9.66,0.061766695231199265,0.018931878730654716,-0.031373634934425354,-0.0405120849609375,-0.689910888671875,-0.7289276123046875
9.68,0.02564038150012493,0.023514380678534508,-0.04000387340784073,-0.0302276611328125,-0.686004638671875,-0.72186279296875
9.7,-0.017064204439520836,0.011393802240490913,-0.03936471790075302,-0.021942138671875,-0.6864471435546875,-0.6973876953125
9.72,-0.04378582909703255,-0.01101696491241455,-0.03080345317721367,-0.0147247314453125,-0.6901092529296875,-0.6967926025390625
9.74,-0.017421867698431015,0.023239275440573692,-0.03702379763126373,-0.0146026611328125,-0.6829071044921875,-0.7102813720703125
9.76,0.010892328806221485,0.05951978638768196,-0.028899025171995163,-0.0248260498046875,-0.6813507080078125,-0.735565185546875
9.78,0.003913781605660915,0.05193137377500534,0.0006383596919476986,-0.0066986083984375,-0.6765899658203125,-0.7224884033203125
9.8,-0.007232879288494587,0.0014703312190249562,0.009725597687065601,-0.0135955810546875,-0.6845703125,-0.7189178466796875
9.82,-0.011544536799192429,-0.019393671303987503,0.004765726625919342,-0.027435302734375,-0.6888885498046875,-0.7320098876953125
9.84,-0.007272826507687569,-0.0018287927377969027,-0.0012740562669932842,-0.027435302734375,-0.6888885498046875,-0.7320098876953125
9.86,0.006334062200039625,0.008343683555722237,-0.013906494714319706,-0.03533935546875,-0.6870574951171875,-0.7433319091796875
9.88,0.027121100574731827,0.02094230055809021,-0.032716669142246246,-0.0434417724609375,-0.6877288818359375,-0.749542236328125
9.9,0.03816070035099983,0.027591947466135025,-0.043480899184942245,-0.0428314208984375,-0.688568115234375,-0.7480010986328125
9.92,0.031157387420535088,0.021157748997211456,-0.0544147714972496,-0.03240966796875,-0.68829345703125,-0.7352294921875
9.94,0.024866467341780663,0.045529402792453766,-0.06656864285469055,-0.0250244140625,-0.689300537109375,-0.7238311767578125
9.96,0.0005539375124499202,0.06783630698919296,-0.06079544126987457,-0.014190673828125,-0.6876068115234375,-0.718475341796875
9.98,-0.02612427808344364,0.04507692903280258,-0.05107437074184418,0.0041351318359375,-0.681396484375,-0.7103271484375
10,-0.02497512474656105,0.02653547003865242,-0.0279216468334198,0.0171356201171875,-0.6778106689453125,-0.707550048828125
10.02,0.007056045345962048,0.03966325521469116,0.016646089032292366,0.029693603515625,-0.66827392578125,-0.7227325439453125
10.04,0.06120343506336212,0.045946985483169556,0.05263365060091019,0.030181884765625,-0.6540069580078125,-0.7458953857421875
10.06,0.08642437309026718,0.036907415837049484,0.06682616472244263,0.00189208984375,-0.6677093505859375,-0.738739013671875
10.08,0.07840665429830551,0.02755599468946457,0.07041850686073303,0.00189208984375,-0.6677093505859375,-0.738739013671875
10.1,0.05282912775874138,0.0006836334359832108,0.05234123393893242,-0.0114593505859375,-0.6787567138671875,-0.71917724609375
10.12,0.03828373923897743,-0.008145811036229134,0.014596519060432911,-0.0323028564453125,-0.68902587890625,-0.7104949951171875
10.14,0.027961593121290207,0.007705057505518198,-0.02383529208600521,-0.048553466796875,-0.69573974609375,-0.720550537109375
10.16,0.026969298720359802,0.02310478687286377,-0.0536283403635025,-0.051513671875,-0.6969757080078125,-0.7225341796875
10.18,0.03341761231422424,0.021742047742009163,-0.08286558836698532,-0.0481414794921875,-0.6974029541015625,-0.7236175537109375
10.2,0.04063504561781883,-0.00026764770154841244,-0.09585648775100708,-0.0442962646484375,-0.70074462890625,-0.7216644287109375
10.22,0.02087279036641121,-0.014884407632052898,-0.09885094314813614,-0.022125244140625,-0.7014617919921875,-0.7103424072265625
10.24,0.020130036398768425,-0.006213687360286713,-0.10527528822422028,-0.01885986328125,-0.699798583984375,-0.703521728515625
10.26,0.02773176319897175,0.02034015953540802,-0.10603881627321243,-0.015625,-0.70001220703125,-0.7104034423828125
10.28,0.01600373350083828,0.03562191128730774,-0.09549269825220108,-0.009307861328125,-0.7012481689453125,-0.7128143310546875
10.3,-0.02383342757821083,0.01854119449853897,-0.07207472622394562,0.00634765625,-0.7025299072265625,-0.699493408203125
10.32,-0.06527168303728104,-0.025896579027175903,-0.02630297653377056,0.023162841796875,-0.7012481689453125,-0.685638427734375
10.34,-0.06239573284983635,-0.030833279713988304,0.020721256732940674,0.0353546142578125,-0.6956939697265625,-0.6883544921875
10.36,-0.025590315461158752,-0.003934287931770086,0.041733063757419586,0.0333251953125,-0.6902923583984375,-0.7161102294921875
10.38,0.020434435456991196,0.010835337452590466,0.054419830441474915,0.0173797607421875,-0.6906890869140625,-0.7408599853515625
10.4,0.059307266026735306,0.01149553433060646,0.06389482319355011,0.0047454833984375,-0.695404052734375,-0.7480316162109375
10.42,0.060516607016325,0.015218367800116539,0.07123902440071106,0.00506591796875,-0.695068359375,-0.7393951416015625
10.44,0.05053534731268883,0.009131712839007378,0.07370883971452713,0.00433349609375,-0.6963653564453125,-0.72210693359375
10.46,0.03791782259941101,0.018275676295161247,0.05915946140885353,0.0011749267578125,-0.6970672607421875,-0.71002197265625
10.48,0.026163427159190178,0.02532639540731907,0.04309713840484619,-0.0140228271484375,-0.6977081298828125,-0.7046661376953125
10.5,-0.002939597237855196,0.034636273980140686,0.030289994552731514,-0.02099609375,-0.7000579833984375,-0.698211669921875
10.52,-0.05259476974606514,0.01882668398320675,0.006374808494001627,-0.020660400390625,-0.703125,-0.689849853515625
10.54,-0.09034720808267593,0.00384374032728374,-0.030065756291151047,-0.02728271484375,-0.7111968994140625,-0.6862030029296875
10.56,-0.106743223965168,0.015234612859785557,-0.05391170084476471,-0.0276336669921875,-0.7130279541015625,-0.6959686279296875
10.58,-0.0821358785033226,0.037627268582582474,-0.053455766290426254,-0.0219268798828125,-0.705963134765625,-0.713165283203125
10.6,-0.04014209285378456,0.05758100375533104,-0.03140506148338318,-0.010894775390625,-0.6911163330078125,-0.738800048828125
10.62,-0.022582806646823883,0.05042429268360138,-0.00948245171457529,0.0057220458984375,-0.685302734375,-0.746246337890625
10.64,-0.014517690055072308,0.0287669338285923,0.010117615573108196,0.0175933837890625,-0.6815338134765625,-0.732666015625
10.66,-0.013727796263992786,0.007026750594377518,0.015681225806474686,0.01702880859375,-0.6831207275390625,-0.7286376953125
10.68,-0.01690894179046154,0.021433653309941292,0.02538818120956421,0.0112457275390625,-0.6849212646484375,-0.72418212890625
10.7,0.012794625014066696,0.05014306306838989,0.03912423178553581,0.0043182373046875,-0.6821136474609375,-0.7316436767578125
10.72,0.031440481543540955,0.052085839211940765,0.0392155796289444,-0.012359619140625,-0.6845245361328125,-0.7333831787109375
10.74,0.022424882277846336,0.026933345943689346,0.028690233826637268,-0.012359619140625,-0.6845245361328125,-0.7333831787109375
10.76,-0.017741180956363678,0.0011174624087288976,0.012149873189628124,-0.0198211669921875,-0.69244384765625,-0.7102813720703125
10.78,-0.03188469633460045,0.00532605592161417,-0.021861355751752853,-0.02911376953125,-0.70025634765625,-0.6992950439453125
10.8,-0.016935840249061584,0.01359597034752369,-0.054311174899339676,-0.0374908447265625,-0.704620361328125,-0.71502685546875
10.82,-0.012269449420273304,0.018571021035313606,-0.05913602560758591,-0.03436279296875,-0.7032012939453125,-0.7246856689453125
10.84,-0.035518579185009,0.01158501673489809,-0.04078151658177376,-0.0128173828125,-0.6938934326171875,-0.7194671630859375
10.86,-0.07714565098285675,-0.019887154921889305,-0.017416007816791534,0.0084686279296875,-0.6878662109375,-0.7054290771484375
10.88,-0.09289451688528061,-0.028568794950842857,-0.006937268190085888,0.023712158203125,-0.6854400634765625,-0.7036895751953125
10.9,-0.07231148332357407,-0.01955985277891159,0.014703311957418919,0.0194244384765625,-0.6850738525390625,-0.7242431640625
10.92,-0.033607762306928635,-0.006628075148910284,0.039448607712984085,0.0189971923828125,-0.6773529052734375,-0.7481231689453125
10.94,0.004867193289101124,-0.007949003018438816,0.04788896068930626,0.0156707763671875,-0.67236328125,-0.76177978515625
10.96,0.042640138417482376,-0.02678048051893711,0.05684783682227135,0.0121002197265625,-0.67535400390625,-0.76654052734375
10.98,0.08465443551540375,-0.028603682294487953,0.07776723057031631,0.0072021484375,-0.677734375,-0.76080322265625
11,0.11286689341068268,-0.016274843364953995,0.08654873818159103,-0.000457763671875,-0.6706085205078125,-0.7590179443359375
11.02,0.09357868880033493,-0.01390170119702816,0.07430645823478699,-0.0099334716796875,-0.676666259765625,-0.74462890625
11.04,0.02647688053548336,-0.05431943014264107,0.04572327807545662,-0.0181884765625,-0.6911773681640625,-0.7119293212890625
11.06,-0.02666223794221878,-0.06727065145969391,0.011876100674271584,-0.030364990234375,-0.6990814208984375,-0.6858062744140625
11.08,-0.0647965744137764,-0.04711797833442688,-0.008199873380362988,-0.0257720947265625,-0.6982574462890625,-0.691192626953125
11.1,-0.05854293704032898,0.002633333671838045,-0.01936917006969452,-0.02557373046875,-0.6922454833984375,-0.7078857421875
11.12,-0.040469929575920105,0.01601065881550312,-0.03214222192764282,-0.021453857421875,-0.6891937255859375,-0.7295684814453125
11.14,-0.029835393652319908,0.0184628963470459,-0.03608663007616997,-0.0025177001953125,-0.692474365234375,-0.7245941162109375
11.16,-0.005854160524904728,0.04145023599267006,-0.035284221172332764,-0.0025177001953125,-0.692474365234375,-0.7245941162109375
11.18,-0.023428360000252724,0.03152090683579445,-0.014789598993957043,0.0092315673828125,-0.690277099609375,-0.726654052734375
11.2,-0.060030315071344376,-0.018609637394547462,0.02388269640505314,0.0255279541015625,-0.6910247802734375,-0.7055511474609375
11.22,-0.04499490559101105,0.0032378712203353643,0.059528838843107224,0.0312042236328125,-0.685302734375,-0.70745849609375
11.24,0.010305368341505527,0.06081061810255051,0.07917977124452591,0.017822265625,-0.67822265625,-0.7459869384765625
11.26,0.06778011471033096,0.0639645978808403,0.09126786142587662,0.000701904296875,-0.674530029296875,-0.77374267578125
11.28,0.08179739117622375,0.03208177164196968,0.0733485147356987,-0.014892578125,-0.6778564453125,-0.764312744140625
11.3,0.06302184611558914,-0.016379505395889282,0.07131679356098175,-0.0253143310546875,-0.6837158203125,-0.739532470703125
11.32,0.07119215279817581,0.01830204203724861,0.0586119145154953,-0.0445098876953125,-0.6810455322265625,-0.7372589111328125
11.34,0.07794033735990524,0.06028810888528824,0.020080234855413437,-0.0445098876953125,-0.6810455322265625,-0.7372589111328125
11.36,0.07116791605949402,0.056171659380197525,-0.02046559378504753,-0.0617828369140625,-0.68890380859375,-0.7328033447265625
11.38,0.041426002979278564,0.016036756336688995,-0.036983851343393326,-0.0562744140625,-0.6952972412109375,-0.7101898193359375
11.4,-0.02592294290661812,-0.027055852115154266,-0.04008882865309715,-0.033355712890625,-0.6975860595703125,-0.6920013427734375
11.42,-0.041313350200653076,-0.008701878599822521,-0.055087488144636154,-0.025543212890625,-0.6957855224609375,-0.685028076171875
11.44,-0.04043876752257347,0.013640444725751877,-0.07436717301607132,-0.0275421142578125,-0.69580078125,-0.70928955078125
11.46,-0.02792217768728733,0.025591911748051643,-0.08251591771841049,-0.0306854248046875,-0.6929473876953125,-0.7264862060546875
11.48,-0.006037652492523193,0.008790561929345131,-0.08726300299167633,-0.0218658447265625,-0.6923980712890625,-0.731719970703125
11.5,-0.0027110979426652193,-0.013294766657054424,-0.06426234543323517,-0.0093536376953125,-0.6933441162109375,-0.7312774658203125
11.52,0.008153267204761505,0.006142048165202141,-0.04093971103429794,0.0050811767578125,-0.6914215087890625,-0.726226806640625
11.54,0.02028449811041355,0.020715665072202682,-0.03753485903143883,0.008056640625,-0.687652587890625,-0.72930908203125
11.56,0.008881642483174801,0.015848204493522644,-0.04176555573940277,0.0009307861328125,-0.69287109375,-0.7265472412109375
11.58,-0.023977505043148994,-0.01575392857193947,-0.027661722153425217,0.0111541748046875,-0.7000579833984375,-0.7117462158203125
11.6,-0.019589945673942566,-0.021858161315321922,-0.015848737210035324,0.0188446044921875,-0.7022552490234375,-0.703155517578125
11.62,0.017795508727431297,-0.008768724277615547,0.012401808053255081,0.017059326171875,-0.6963043212890625,-0.7274627685546875
11.64,0.040114130824804306,0.013111274689435959,0.028746426105499268,0.01153564453125,-0.6905975341796875,-0.74578857421875
11.66,0.037763092666864395,0.005191565956920385,0.023430224508047104,0.005340576171875,-0.691009521484375,-0.7352294921875
11.68,0.027875838801264763,-0.01661013625562191,0.014210627414286137,-0.0016632080078125,-0.698822021484375,-0.7194366455078125
11.7,0.01792999729514122,-0.01188142690807581,0.014844193123281002,-0.003143310546875,-0.6999969482421875,-0.7107086181640625
11.72,0.0082102594897151,-0.00830906257033348,0.01871110312640667,-0.00445556640625,-0.69720458984375,-0.7136993408203125
11.74,-0.0021851237397640944,-0.011061705648899078,0.009109076112508774,-0.00482177734375,-0.693145751953125,-0.7150726318359375
11.76,0.010099239647388458,0.0004873584839515388,-0.01260873582214117,-0.0093536376953125,-0.69580078125,-0.7186431884765625
11.78,0.00977273564785719,-0.004593953024595976,-0.016694823279976845,-0.0127716064453125,-0.6952667236328125,-0.724822998046875
11.8,0.003871171036735177,-0.004797418136149645,-0.009010805748403072,-0.00341796875,-0.6898193359375,-0.724884033203125
11.82,0.013574131764471531,0.012103800661861897,0.0010551444720476866,-0.0004119873046875,-0.6866912841796875,-0.7219696044921875
11.84,0.00996075477451086,0.006174272391945124,-0.0015097459545359015,-0.006988525390625,-0.683868408203125,-0.725677490234375
11.86,0.011061972007155418,0.0035891421139240265,-0.021206218749284744,-0.011871337890625,-0.6872100830078125,-0.7221527099609375
11.88,0.004417917691171169,0.01453047338873148,-0.03796549141407013,-0.0200347900390625,-0.6930999755859375,-0.7194366455078125
11.9,-0.02207813784480095,0.019512981176376343,-0.03293531388044357,-0.0172271728515625,-0.69171142578125,-0.714752197265625
11.92,-0.04514537379145622,-0.00566907087340951,-0.020320983603596687,-0.0051116943359375,-0.6886444091796875,-0.70831298828125
11.94,-0.03140932321548462,-0.0065164887346327305,-0.005803560372442007,0.0011138916015625,-0.68603515625,-0.7113189697265625
11.96,0.000008255799002654385,-0.0014908375451341271,-0.003924434073269367,0.0023956298828125,-0.686737060546875,-0.732635498046875
11.98,0.02299346588551998,0.00624058535322547,-0.005250954534858465,-0.005645751953125,-0.6842041015625,-0.7436370849609375
12,0.0456060990691185,0.004543352872133255,-0.0025928535033017397,-0.01251220703125,-0.6851348876953125,-0.7378387451171875
12.02,0.04565989598631859,-0.00027510453946888447,-0.015547534450888634,-0.01251220703125,-0.6851348876953125,-0.7378387451171875
12.04,0.03151265159249306,0.0022620889358222485,-0.02755972184240818,-0.0181427001953125,-0.69024658203125,-0.724945068359375
12.06,0.010624947026371956,-0.007645136676728725,-0.03654256463050842,-0.017852783203125,-0.6947021484375,-0.7152099609375
12.08,-0.0034533210564404726,-0.014541125856339931,-0.04183905944228172,-0.0158233642578125,-0.69482421875,-0.7091827392578125
12.1,-0.009036637842655182,-0.0073593794368207455,-0.04258793964982033,-0.0123138427734375,-0.6993865966796875,-0.7088775634765625
12.12,-0.012593023478984833,-0.006901581771671772,-0.04561568796634674,-0.0102996826171875,-0.69677734375,-0.715576171875
12.14,-0.02713761106133461,-0.03341042250394821,-0.056281380355358124,-0.0087127685546875,-0.6967620849609375,-0.7142333984375
12.16,-0.015294001437723637,-0.027423102408647537,-0.06197628378868103,-0.0025177001953125,-0.6965484619140625,-0.714263916015625
12.18,0.014157097786664963,-0.0022591594606637955,-0.05004319176077843,0.0019378662109375,-0.692169189453125,-0.732025146484375
12.2,0.03224875032901764,0.008558601140975952,-0.02545715682208538,0.0113067626953125,-0.68402099609375,-0.738983154296875
12.22,0.04381405934691429,0.008305068127810955,-0.0032746228389441967,0.0213775634765625,-0.6808929443359375,-0.734100341796875
12.24,0.03165193647146225,0.016558736562728882,0.002285258611664176,0.0219879150390625,-0.685516357421875,-0.722869873046875
12.26,-0.0003787015157286078,-0.0068147629499435425,-0.013135509565472603,0.0138702392578125,-0.691314697265625,-0.7069549560546875
12.28,-0.011662514880299568,-0.01818140037357807,-0.022554578259587288,0.002105712890625,-0.699432373046875,-0.7003936767578125
12.3,-0.0051289820112288,-0.004628041293472052,-0.004571582190692425,0.0045318603515625,-0.6962127685546875,-0.71044921875
12.32,0.02347656339406967,0.015484151430428028,0.02081579901278019,0.013885498046875,-0.684783935546875,-0.7273712158203125
12.34,0.05150793120265007,0.00908457487821579,0.025066737085580826,0.0109405517578125,-0.68017578125,-0.73828125
12.36,0.04148086532950401,-0.0009265137487091124,0.01641812175512314,0.003387451171875,-0.6855926513671875,-0.7324066162109375
12.38,0.012117116712033749,0.018244517967104912,0.00023382554354611784,-0.0042877197265625,-0.6929473876953125,-0.718231201171875
12.4,-0.01623968966305256,0.019171830266714096,-0.007788680959492922,-0.0087127685546875,-0.6933135986328125,-0.71075439453125
12.42,-0.018500180914998055,0.028142422437667847,-0.004101534374058247,-0.0051422119140625,-0.6907196044921875,-0.7102813720703125
12.44,-0.0007424892974086106,0.03241919353604317,-0.00532472413033247,-0.0021209716796875,-0.689056396484375,-0.7235565185546875
12.46,0.008474977687001228,0.01648736372590065,-0.0027955202385783195,-0.0015716552734375,-0.6896820068359375,-0.72760009765625
12.48,0.01613635942339897,-0.008106129243969917,-0.0038541266694664955,-0.0011138916015625,-0.6929779052734375,-0.7242431640625
12.5,0.01261166576296091,-0.015132080763578415,-0.009737315587699413,-0.0029754638671875,-0.694610595703125,-0.72406005859375
12.52,0.007243798114359379,-0.0013579458463937044,-0.019871709868311882,-0.0088653564453125,-0.69769287109375,-0.724212646484375
12.54,0.017521202564239502,0.007959122769534588,-0.01594248041510582,-0.00872802734375,-0.698883056640625,-0.7275848388671875
12.56,0.04092852398753166,0.011495268903672695,-0.0032088428270071745,-0.0027313232421875,-0.693023681640625,-0.7300567626953125
12.58,0.06453638523817062,0.017492974177002907,0.009328787215054035,0.00567626953125,-0.685150146484375,-0.7362823486328125
12.6,0.04565669968724251,-0.006840861868113279,0.019222963601350784,0.009490966796875,-0.6827545166015625,-0.7214508056640625
12.62,0.004025368019938469,-0.02443796582520008,0.02093537524342537,0.0127716064453125,-0.6861572265625,-0.69537353515625
12.64,-0.032813072204589844,-0.0065801385790109634,0.01404710952192545,0.006622314453125,-0.696807861328125,-0.6863555908203125
12.66,-0.047982439398765564,0.002350505907088518,0.012612731195986271,0.000640869140625,-0.7005157470703125,-0.6975555419921875
12.68,-0.03272545710206032,0.0016415724530816078,0.011334413662552834,-0.0031585693359375,-0.6994781494140625,-0.712982177734375
12.7,-0.0020160130225121975,0.005290103144943714,0.01744077540934086,0.00091552734375,-0.695220947265625,-0.7323760986328125
12.72,0.016337960958480835,0.00586721021682024,0.02227121777832508,0.00091552734375,-0.695220947265625,-0.7323760986328125
12.74,0.04312669858336449,0.012169048190116882,0.011550662107765675,-0.0014801025390625,-0.6947784423828125,-0.7299346923828125
12.76,0.07012582570314407,0.022339127957820892,-0.008496815338730812,-0.0103759765625,-0.6983642578125,-0.7287139892578125
12.78,0.060692641884088516,0.0475321002304554,-0.03039652109146118,-0.018585205078125,-0.7019500732421875,-0.7181549072265625
12.8,0.0037084517534822226,0.05768992751836777,-0.02839595451951027,-0.0102996826171875,-0.71063232421875,-0.6982421875
12.82,-0.06593587249517441,0.009443036280572414,-0.011473163962364197,0.0066680908203125,-0.7075347900390625,-0.6736602783203125
12.84,-0.11865741014480591,-0.02641030214726925,0.014553909189999104,0.0217437744140625,-0.703399658203125,-0.65814208984375
12.86,-0.1126764789223671,0.0011408982099965215,0.053341519087553024,0.0298919677734375,-0.6937103271484375,-0.678955078125
12.88,-0.08069298416376114,0.0024341291282325983,0.07200521975755692,0.025177001953125,-0.681427001953125,-0.720672607421875
12.9,-0.03716973960399628,-0.01582903042435646,0.06226843595504761,0.004608154296875,-0.68450927734375,-0.74432373046875
12.92,0.002124936319887638,0.003369697602465749,0.03989335522055626,-0.0129547119140625,-0.6942138671875,-0.754608154296875
12.94,0.021383585408329964,0.023059779778122902,0.01907009817659855,-0.023651123046875,-0.6973724365234375,-0.754974365234375
12.96,0.0223228819668293,0.023364977911114693,0.0008412926108576357,-0.0228729248046875,-0.701019287109375,-0.7377777099609375
12.98,0.0070248860865831375,0.015225558541715145,-0.013847638852894306,-0.016082763671875,-0.6989898681640625,-0.7160491943359375
13,-0.014111557975411415,0.028494492173194885,-0.009767409414052963,-0.0077972412109375,-0.6990966796875,-0.7021484375
13.02,-0.05212312191724777,0.014878282323479652,0.0035428032279014587,0.0074005126953125,-0.6952667236328125,-0.6958465576171875
13.04,-0.0772085040807724,-0.003832821501418948,0.004722317215055227,0.0119476318359375,-0.6897735595703125,-0.690643310546875
13.06,-0.09723334014415741,-0.007577492389827967,0.0028533106669783592,0.008636474609375,-0.6884307861328125,-0.697906494140625
13.08,-0.11480115354061127,-0.026256904006004333,0.020861338824033737,0.0053558349609375,-0.6863250732421875,-0.711456298828125
13.1,-0.09872844070196152,-0.025241173803806305,0.037943653762340546,0.0081787109375,-0.6805572509765625,-0.7254638671875
13.12,-0.030117688700556755,0.005561479367315769,0.04037538543343544,0.0007171630859375,-0.677215576171875,-0.7570648193359375
13.14,0.04622235521674156,0.044563740491867065,0.017110809683799744,-0.017608642578125,-0.6804046630859375,-0.784820556640625
13.16,0.09449880570173264,0.04055941104888916,-0.005389438942074776,-0.027069091796875,-0.686920166015625,-0.7815093994140625
13.18,0.10056815296411514,0.03198855742812157,-0.021803032606840134,-0.0198974609375,-0.6931610107421875,-0.75531005859375
13.2,0.056945573538541794,0.025616679340600967,-0.019776368513703346,-0.008392333984375,-0.6936187744140625,-0.724151611328125
13.22,-0.0008655273704789579,0.012190086767077446,-0.01751055009663105,0.002410888671875,-0.6934661865234375,-0.6952362060546875
13.24,-0.025618810206651688,0.016935840249061584,-0.005025384947657585,0.0055999755859375,-0.6874847412109375,-0.6895599365234375
13.26,-0.0274990014731884,0.01847195066511631,-0.013282249681651592,0.000762939453125,-0.6827850341796875,-0.7049407958984375
13.28,-0.02863590605556965,0.01781601458787918,-0.023249927908182144,-0.0085906982421875,-0.683197021484375,-0.71575927734375
13.3,-0.027873709797859192,0.01788152940571308,-0.034812573343515396,-0.014251708984375,-0.689361572265625,-0.7218017578125
13.32,-0.03669942542910576,0.009374593384563923,-0.03830850496888161,-0.016326904296875,-0.69256591796875,-0.7230377197265625
13.34,-0.05204003304243088,-0.0009888317435979843,-0.026088058948516846,-0.00469970703125,-0.6948394775390625,-0.7186279296875
13.36,-0.04174717888236046,-0.004513259045779705,-0.015421566553413868,0.0050506591796875,-0.69110107421875,-0.71917724609375
13.38,-0.023377228528261185,-0.0036903421860188246,0.004457865376025438,0.0135955810546875,-0.687774658203125,-0.72735595703125
13.4,-0.0033688987605273724,-0.02262967824935913,0.012473713606595993,0.017822265625,-0.6837005615234375,-0.7363739013671875
13.42,0.002695651724934578,-0.03351721540093422,0.008379103615880013,0.0111236572265625,-0.685028076171875,-0.73486328125
13.44,-0.005784385837614536,-0.018615761771798134,0.019233083352446556,0.0076446533203125,-0.6888275146484375,-0.728546142578125
13.46,-0.008166316896677017,0.004277569241821766,0.043059319257736206,0.010772705078125,-0.683868408203125,-0.727294921875
13.48,-0.0030341395176947117,0.0010008158860728145,0.0436854287981987,0.0065460205078125,-0.68011474609375,-0.731109619140625
13.5,-0.0006476807757280767,0.0006868292111903429,0.03603683039546013,0.002349853515625,-0.6854705810546875,-0.730499267578125
13.52,0.009425459429621696,-0.008298143744468689,0.01555472519248724,-0.0061187744140625,-0.6902008056640625,-0.7324676513671875
13.54,0.011663047596812248,0.0004213120846543461,-0.001136104459874332,-0.01556396484375,-0.6905670166015625,-0.73004150390625
13.56,-0.015250857919454575,-0.018750252202153206,0.008635565638542175,-0.00506591796875,-0.693023681640625,-0.7225341796875
13.58,-0.02967267483472824,-0.02563904970884323,0.018700184300541878,0.0030975341796875,-0.687957763671875,-0.7109375
13.6,-0.019957728683948517,-0.02474236488342285,0.029277727007865906,0.004852294921875,-0.683135986328125,-0.7178802490234375
13.62,-0.004575310740619898,-0.029499568045139313,0.03677612543106079,0.0024871826171875,-0.681121826171875,-0.7324066162109375
13.64,0.005200620740652084,-0.028492094948887825,0.028741633519530296,-0.001617431640625,-0.6812896728515625,-0.7363739013671875
13.66,0.013199958018958569,-0.023815849795937538,0.02919197455048561,-0.010345458984375,-0.688812255859375,-0.7379913330078125
13.68,0.00926353968679905,0.0012128035305067897,0.029334185644984245,-0.010711669921875,-0.687225341796875,-0.73480224609375
13.7,-0.01239142194390297,0.007650462910532951,0.015379754826426506,-0.009857177734375,-0.6868743896484375,-0.7267303466796875
13.72,-0.025610554963350296,0.0008639294537715614,0.002124669961631298,-0.0142669677734375,-0.69256591796875,-0.7140045166015625
13.74,-0.044254012405872345,-0.004825914278626442,0.008276039734482765,0.00445556640625,-0.69110107421875,-0.7101898193359375
13.76,-0.06019596382975578,-0.008714928291738033,0.024455275386571884,0.00445556640625,-0.69110107421875,-0.7101898193359375
13.78,-0.037934064865112305,0.005090366117656231,0.02965855970978737,0.0031585693359375,-0.6871795654296875,-0.7210845947265625
13.8,-0.012998356483876705,0.021812887862324715,0.044378116726875305,0.00103759765625,-0.6831512451171875,-0.743560791015625
13.82,-0.013217268511652946,0.0035025894176214933,0.05179794877767563,0.000244140625,-0.6795654296875,-0.7415618896484375
13.84,-0.0133850472047925,-0.018545720726251602,0.05486058443784714,-0.001251220703125,-0.6814727783203125,-0.72998046875
13.86,-0.01398612279444933,-0.012347480282187462,0.06543892621994019,-0.0048980712890625,-0.6829071044921875,-0.728302001953125
13.88,-0.023788953199982643,0.009007343091070652,0.08008391410112381,-0.00372314453125,-0.67822265625,-0.733642578125
13.9,-0.0034906051587313414,0.036385439336299896,0.07006004452705383,-0.0225982666015625,-0.6779632568359375,-0.748443603515625
13.92,0.005255748517811298,0.014062289148569107,0.05859274044632912,-0.0225982666015625,-0.6779632568359375,-0.748443603515625
13.94,0.0054666707292199135,0.005408613942563534,0.057125337421894073,-0.0208282470703125,-0.6828765869140625,-0.7411041259765625
13.96,0.01338531356304884,0.007528223562985659,0.03027401678264141,-0.0249176025390625,-0.6823577880859375,-0.7439117431640625
13.98,0.02010606788098812,0.011628959327936172,0.004487160127609968,-0.0387725830078125,-0.68597412109375,-0.7445068359375
14,0.03007880598306656,0.021821143105626106,-0.003350256709381938,-0.0378265380859375,-0.686309814453125,-0.7441558837890625
14.02,0.038786277174949646,0.03526771068572998,0.00126739835832268,-0.031036376953125,-0.679290771484375,-0.7436981201171875
14.04,0.031730763614177704,-0.002628007438033819,0.009229717776179314,-0.0209503173828125,-0.677154541015625,-0.7357940673828125
14.06,0.02261609584093094,-0.016283631324768066,0.010831075720489025,-0.0186614990234375,-0.675048828125,-0.72491455078125
14.08,0.00350445369258523,-0.03290655091404915,0.010193249210715294,-0.014129638671875,-0.6756744384765625,-0.722015380859375
14.1,0.0006450176006183028,-0.01498294435441494,0.01516723446547985,-0.01885986328125,-0.6764984130859375,-0.7229156494140625
14.12,0.006058158818632364,-0.0008138620178215206,0.02159823663532734,-0.019287109375,-0.6759490966796875,-0.7382354736328125
14.14,0.028899557888507843,0.008186823688447475,0.02208905667066574,-0.018585205078125,-0.674407958984375,-0.7437744140625
14.16,0.05465046316385269,0.010014817118644714,0.016952618956565857,-0.0167694091796875,-0.6812896728515625,-0.747833251953125
14.18,0.045942991971969604,0.0043321643024683,0.021697305142879486,-0.0150604248046875,-0.684356689453125,-0.7428741455078125
14.2,0.0307571142911911,0.0032466596458107233,0.01655101403594017,-0.0118255615234375,-0.6873931884765625,-0.72509765625
14.22,0.03033526800572872,0.025556225329637527,0.0031587753910571337,-0.0178985595703125,-0.6916656494140625,-0.7203826904296875
14.24,0.032637838274240494,0.022591594606637955,-0.0027140274178236723,-0.0232696533203125,-0.6911773681640625,-0.7226104736328125
14.26,0.019542541354894638,0.011177552863955498,-0.006585731171071529,-0.021942138671875,-0.6923370361328125,-0.716796875
14.28,0.0028716865926980972,0.005515939090400934,-0.0033518546260893345,-0.0185089111328125,-0.694366455078125,-0.709197998046875
14.3,0.01979021541774273,0.03279789537191391,-0.00782703049480915,-0.0174713134765625,-0.688201904296875,-0.71124267578125
14.32,0.04439116641879082,0.07460179924964905,-0.016503609716892242,-0.0238037109375,-0.6853790283203125,-0.7251434326171875
14.34,0.022997727617621422,0.06525836884975433,-0.02166081964969635,-0.0252685546875,-0.6852874755859375,-0.7259368896484375
14.36,-0.0566430389881134,0.008652610704302788,-0.028861742466688156,-0.0145111083984375,-0.694793701171875,-0.6970977783203125
14.38,-0.11724087595939636,-0.02051379717886448,-0.026849990710616112,-0.0047454833984375,-0.699981689453125,-0.6726226806640625
14.4,-0.10774563997983932,-0.01991538517177105,-0.001454884884878993,0.0007476806640625,-0.6974639892578125,-0.6982421875
14.42,-0.042873430997133255,-0.0029462550301104784,0.03821982443332672,0.0020599365234375,-0.6743927001953125,-0.7766265869140625
14.44,0.03963981941342354,0.006596383638679981,0.06372758001089096,0.0020599365234375,-0.6743927001953125,-0.7766265869140625
14.46,0.10880078375339508,0.0018152105621993542,0.0625762939453125,-0.012176513671875,-0.6750946044921875,-0.785125732421875
14.48,0.11974983662366867,0.010875817388296127,0.03797108307480812,-0.026519775390625,-0.6821441650390625,-0.7693939208984375
14.5,0.08748004585504532,0.02456073649227619,-0.007189469411969185,-0.042205810546875,-0.694732666015625,-0.7369384765625
14.52,0.023504260927438736,0.011895541101694107,-0.030162429437041283,-0.045989990234375,-0.7006988525390625,-0.7028350830078125
14.54,-0.05348692834377289,-0.0212983638048172,-0.028370121493935585,-0.0294036865234375,-0.69927978515625,-0.6768646240234375
14.56,-0.0645478367805481,0.0013339773286134005,-0.010968228802084923,-0.0128173828125,-0.6923980712890625,-0.6780853271484375
14.58,-0.056651562452316284,0.004314321093261242,-0.005417935084551573,-0.0091094970703125,-0.686798095703125,-0.7066192626953125
14.6,-0.04880562424659729,-0.018035726621747017,-0.008468852378427982,-0.0149688720703125,-0.6874542236328125,-0.7206268310546875
14.62,-0.03104846365749836,-0.023729830980300903,-0.018643459305167198,-0.01751708984375,-0.6883697509765625,-0.726593017578125
14.64,-0.010864365845918655,-0.0060933125205338,-0.016217585653066635,-0.025299072265625,-0.6866455078125,-0.7390899658203125
14.66,-0.002383795566856861,0.019643209874629974,-0.010554905980825424,-0.0213165283203125,-0.6834716796875,-0.74273681640625
14.68,-0.0030447919853031635,0.021343903616070747,-0.016160594299435616,-0.0213165283203125,-0.6834716796875,-0.74273681640625
14.7,-0.011510182172060013,0.008570585399866104,-0.009126120246946812,-0.016693115234375,-0.685882568359375,-0.729736328125
14.72,-0.02075907401740551,0.00746084563434124,0.0054272557608783245,-0.0112762451171875,-0.683563232421875,-0.72119140625
14.74,-0.015996010974049568,-0.015353390015661716,0.01949220895767212,-0.003662109375,-0.6819610595703125,-0.7251434326171875
14.76,0.014060425572097301,-0.010932276025414467,0.028970930725336075,-0.00457763671875,-0.6808319091796875,-0.7290496826171875
14.78,0.0657166987657547,0.014327007345855236,0.03477129712700844,-0.0132904052734375,-0.680328369140625,-0.746612548828125
14.8,0.06106095761060715,0.035832032561302185,0.01230407040566206,-0.02593994140625,-0.68011474609375,-0.7572174072265625
14.82,0.06016027554869652,0.0256960429251194,0.003724164329469204,-0.036041259765625,-0.6887664794921875,-0.7357330322265625
14.84,0.032292693853378296,0.0017800568602979183,-0.014600248076021671,-0.03497314453125,-0.6854248046875,-0.721832275390625
14.86,0.011272627860307693,-0.0028842033352702856,-0.041660893708467484,-0.034149169921875,-0.689453125,-0.706146240234375
14.88,0.00749173853546381,0.012194881215691566,-0.05395271256566048,-0.0428619384765625,-0.6905517578125,-0.7080078125
14.9,-0.0029379993211477995,0.0038075214251875877,-0.06382691860198975,-0.0347900390625,-0.6909942626953125,-0.7173004150390625
14.92,-0.008445150218904018,-0.018033595755696297,-0.07543936371803284,-0.0276947021484375,-0.69744873046875,-0.7154998779296875
14.94,0.003064499469473958,-0.03369218483567238,-0.07731236517429352,-0.0276947021484375,-0.69744873046875,-0.7154998779296875
14.96,0.029201561585068703,-0.04598426818847656,-0.06412758678197861,-0.0021209716796875,-0.6847076416015625,-0.735504150390625
14.98,0.02869689278304577,-0.03958043083548546,-0.05987744778394699,-0.0021209716796875,-0.6847076416015625,-0.735504150390625
15,0.03208549693226814,-0.025529861450195312,-0.04427611827850342,-0.00286865234375,-0.6884002685546875,-0.7335052490234375
15.02,0.04788044095039368,-0.016164323315024376,-0.03599528595805168,0.00341796875,-0.6821746826171875,-0.7346954345703125
15.04,0.03966618701815605,-0.023417707532644272,-0.036261335015296936,0.0024261474609375,-0.6861114501953125,-0.7285003662109375
15.06,0.018787270411849022,-0.011107245460152626,-0.03844565898180008,-0.0001373291015625,-0.690338134765625,-0.7179718017578125
15.08,-0.0030013825744390488,-0.004477039910852909,-0.03609195724129677,0.001495361328125,-0.697357177734375,-0.7098846435546875
15.1,-0.017292704433202744,-0.021794511005282402,-0.03221173211932182,0.007659912109375,-0.6993255615234375,-0.7093505859375
15.12,-0.006713829003274441,-0.015358449891209602,-0.016436230391263962,0.010040283203125,-0.69793701171875,-0.7119903564453125
15.14,0.02954963594675064,0.003318032482638955,0.009393235668540001,0.0123443603515625,-0.6918182373046875,-0.7313232421875
15.16,0.06423650681972504,0.014090518467128277,0.02743215672671795,0.015899658203125,-0.6847991943359375,-0.74462890625
15.18,0.07033088803291321,0.009749566204845905,0.03503015637397766,0.01141357421875,-0.6793670654296875,-0.740234375
15.2,0.06676358729600906,0.018311629071831703,0.04169285297393799,0.003265380859375,-0.6800689697265625,-0.7261199951171875
15.22,0.044914476573467255,0.023627031594514847,0.05781403183937073,0.002685546875,-0.6839752197265625,-0.7195281982421875
15.24,0.017360614612698555,0.012270248495042324,0.05112869665026665,-0.000152587890625,-0.6826324462890625,-0.7116241455078125
15.26,0.02196495421230793,0.01986345276236534,0.024085095152258873,-0.0147552490234375,-0.693328857421875,-0.7074127197265625
15.28,0.03538382425904274,0.05475938692688942,-0.001532116555608809,-0.03387451171875,-0.69427490234375,-0.7240142822265625
15.3,0.024984179064631462,0.06534066051244736,-0.020253339782357216,-0.033599853515625,-0.6959991455078125,-0.7146148681640625
15.32,0.027298731729388237,0.05723532661795616,-0.03840624541044235,-0.033599853515625,-0.6959991455078125,-0.7146148681640625
15.34,0.02214418351650238,0.03869440034031868,-0.03423014283180237,-0.0244140625,-0.6948699951171875,-0.7088623046875
15.36,0.008260060101747513,0.00920308567583561,-0.022600118070840836,-0.0147857666015625,-0.6887359619140625,-0.702606201171875
15.38,0.0032139027025550604,-0.000254331884207204,-0.0020514330826699734,-0.0067596435546875,-0.6842498779296875,-0.70330810546875
15.4,0.012693158350884914,0.02610723488032818,-0.0013936321483924985,-0.0234375,-0.676513671875,-0.7261199951171875
15.42,0.0010373012628406286,0.0359412245452404,-0.017053551971912384,-0.0234375,-0.676513671875,-0.7261199951171875
15.44,-0.029828468337655067,0.007493336219340563,-0.045107290148735046,-0.0285797119140625,-0.6883087158203125,-0.7150421142578125
15.46,-0.04705912247300148,-0.004224305972456932,-0.06738197058439255,-0.0303802490234375,-0.702972412109375,-0.705230712890625
15.48,-0.015787485986948013,0.018799521028995514,-0.0635419562458992,-0.026153564453125,-0.7098846435546875,-0.71820068359375
15.5,-0.00236249016597867,0.014280934818089008,-0.0538371317088604,-0.010711669921875,-0.7009124755859375,-0.7357177734375
15.52,0.010234794579446316,-0.0057279267348349094,-0.0471041277050972,0.0003814697265625,-0.6976776123046875,-0.728302001953125
15.54,0.018936673179268837,-0.02165389619767666,-0.035541217774152756,0.007598876953125,-0.70068359375,-0.723388671875
15.56,0.015002917498350143,-0.030827688053250313,-0.017737185582518578,0.0172119140625,-0.6972198486328125,-0.722076416015625
15.58,0.03085937909781933,-0.03237178921699524,-0.0005153216770850122,0.0233001708984375,-0.6923370361328125,-0.72186279296875
15.6,0.06320826709270477,-0.009476592764258385,0.03118108958005905,0.0194091796875,-0.6862945556640625,-0.7323150634765625
15.62,0.07594536244869232,0.016268718987703323,0.05324085056781769,0.01983642578125,-0.6763763427734375,-0.7343597412109375
15.64,0.04772704094648361,0.004260525107383728,0.049608033150434494,0.0139617919921875,-0.6830596923828125,-0.7203369140625
15.66,-0.01727139763534069,-0.032375518232584,0.05036943033337593,0.0104827880859375,-0.699249267578125,-0.6919403076171875
15.68,-0.052387308329343796,-0.06042952090501785,0.060331784188747406,0.00677490234375,-0.7044677734375,-0.676055908203125
15.7,-0.028447620570659637,-0.0182943195104599,0.06952128559350967,0.0021514892578125,-0.699615478515625,-0.697998046875
15.72,0.019108446314930916,0.013966416008770466,0.056353554129600525,-0.01446533203125,-0.696319580078125,-0.7339630126953125
15.74,0.034977689385414124,0.01528894156217575,0.03468288108706474,-0.026336669921875,-0.6988372802734375,-0.7395477294921875
15.76,0.002098038326948881,0.013229252770543098,0.006758836563676596,-0.030059814453125,-0.7042999267578125,-0.71624755859375
15.78,-0.059248942881822586,0.004418184049427509,-0.012341354973614216,-0.0299835205078125,-0.7130889892578125,-0.6889801025390625
15.8,-0.11208472400903702,-0.005870139691978693,-0.014682539738714695,-0.0202484130859375,-0.7140045166015625,-0.6769256591796875
15.82,-0.1229589432477951,-0.007458715233951807,0.007774033583700657,-0.003509521484375,-0.7091064453125,-0.68402099609375
15.84,-0.08339715749025345,0.0006005428149364889,0.05361848697066307,0.008880615234375,-0.6959228515625,-0.7142333984375
15.86,-0.012206599116325378,0.014336062595248222,0.10291679203510284,0.015899658203125,-0.682464599609375,-0.745147705078125
15.88,0.041005223989486694,0.032580845057964325,0.11227887123823166,0.0099029541015625,-0.6751251220703125,-0.76275634765625
15.9,0.03382161259651184,0.030768565833568573,0.0943981409072876,-0.0101470947265625,-0.6798858642578125,-0.750946044921875
15.92,-0.009073389694094658,0.021640580147504807,0.0753815695643425,-0.02655029296875,-0.6885528564453125,-0.7219390869140625
15.94,-0.05855172500014305,0.014542457647621632,0.05987771600484848,-0.031097412109375,-0.6938629150390625,-0.701080322265625
15.96,-0.08239181339740753,-0.0017182715237140656,0.05131778120994568,-0.0353851318359375,-0.69622802734375,-0.697662353515625
15.98,-0.06806214153766632,-0.0034285534638911486,0.0419333353638649,-0.037445068359375,-0.6967926025390625,-0.7086334228515625
16,-0.029937658458948135,-0.0005496764206327498,0.027301395311951637,-0.0456695556640625,-0.697265625,-0.73016357421875
16.02,0.0027928571216762066,0.010583136230707169,0.00598545465618372,-0.04736328125,-0.6957855224609375,-0.741790771484375
16.04,-0.0016359798610210419,0.014989602379500866,-0.008362325839698315,-0.04754638671875,-0.692535400390625,-0.7410125732421875
16.06,-0.017847971990704536,0.013606622815132141,-0.024834243580698967,-0.03997802734375,-0.689361572265625,-0.72662353515625
16.08,-0.034628815948963165,0.01732279732823372,-0.039808932691812515,-0.0343170166015625,-0.686920166015625,-0.7176361083984375
16.1,-0.04809722304344177,0.026560237631201744,-0.040097884833812714,-0.0322418212890625,-0.6898651123046875,-0.7172698974609375
16.12,-0.06349801272153854,0.00603392394259572,-0.038299452513456345,-0.0179443359375,-0.687103271484375,-0.7159423828125
16.14,-0.06818411499261856,-0.00998978316783905,-0.028356274589896202,-0.0108489990234375,-0.686248779296875,-0.71337890625
16.16,-0.043542418628931046,0.003171824850142002,-0.00827843602746725,-0.0089111328125,-0.68353271484375,-0.7280120849609375
16.18,-0.005935120861977339,0.0024951156228780746,0.00788801722228527,-0.008026123046875,-0.679443359375,-0.746307373046875
16.2,0.03441976010799408,0.01804930716753006,0.004941229242831469,-0.012969970703125,-0.6780853271484375,-0.752532958984375
16.22,0.05722707137465477,0.03596998378634453,-0.013453224673867226,-0.02545166015625,-0.6832733154296875,-0.75347900390625
16.24,0.044082771986722946,0.04982588067650795,-0.021196098998188972,-0.0285797119140625,-0.6914825439453125,-0.7386932373046875
16.26,-0.0019470370607450604,0.026434537023305893,-0.01900857873260975,-0.0184326171875,-0.691925048828125,-0.7142181396484375
16.28,-0.04476827010512352,0.018428275361657143,-0.0184040404856205,-0.0089569091796875,-0.6927947998046875,-0.693206787109375
16.3,-0.041786860674619675,0.019305787980556488,-0.01417494099587202,-0.008544921875,-0.6908111572265625,-0.6995086669921875
16.32,-0.03716627508401871,0.019714316353201866,-0.005840312223881483,-0.0073089599609375,-0.6840667724609375,-0.7189483642578125
16.34,-0.014838866889476776,0.013679060153663158,-0.004914597608149052,-0.0077972412109375,-0.6819610595703125,-0.7304534912109375
16.36,-0.00045140579459257424,0.009290437214076519,-0.003816842334344983,-0.013885498046875,-0.684112548828125,-0.7382659912109375
16.38,0.004764128942042589,0.009186307899653912,-0.010573814623057842,-0.0150909423828125,-0.6877288818359375,-0.7382354736328125
16.4,0.013571735471487045,0.02081766352057457,-0.02714107371866703,-0.0205841064453125,-0.6911468505859375,-0.736602783203125
16.42,0.023320235311985016,0.036796629428863525,-0.051361456513404846,-0.0232696533203125,-0.690887451171875,-0.7355499267578125
16.44,0.01131044514477253,0.040047816932201385,-0.06531216204166412,-0.0236053466796875,-0.6934967041015625,-0.7278594970703125
16.46,-0.009006012231111526,0.03368179872632027,-0.05414499342441559,-0.011749267578125,-0.69354248046875,-0.7138519287109375
16.48,-0.03762860223650932,0.02382676862180233,-0.02846173569560051,0.0060882568359375,-0.68878173828125,-0.7078857421875
16.5,-0.051955342292785645,0.018968896940350533,-0.00461632339283824,0.018157958984375,-0.682525634765625,-0.7063446044921875
16.52,-0.03729996830224991,0.025773540139198303,-0.0018485001055523753,0.0171051025390625,-0.678192138671875,-0.720947265625
16.54,-0.014960041269659996,0.029138710349798203,-0.0023100259713828564,0.008453369140625,-0.681365966796875,-0.739044189453125
16.56,0.002612028270959854,0.011435347609221935,0.01575978845357895,0.0040283203125,-0.6843414306640625,-0.745025634765625
16.58,0.030822094529867172,0.018806977197527885,0.02598606050014496,0.0059661865234375,-0.6822967529296875,-0.7461395263671875
16.6,0.053889330476522446,0.0412646159529686,0.024162061512470245,0.0021820068359375,-0.6811981201171875,-0.750274658203125
16.62,0.041183389723300934,0.01571371592581272,0.025647306814789772,-0.0024871826171875,-0.6816253662109375,-0.7427825927734375
16.64,0.019762519747018814,-0.01134080532938242,0.034260500222444534,-0.0006866455078125,-0.6827545166015625,-0.7187042236328125
16.66,0.014860172756016254,0.002793123247101903,0.02508617751300335,0.000946044921875,-0.6837005615234375,-0.7166290283203125
16.68,0.01272751297801733,0.03202424570918083,0.009939982555806637,-0.014739990234375,-0.6842498779296875,-0.729095458984375
16.7,0.01070963591337204,0.029097165912389755,-0.01540798507630825,-0.020294189453125,-0.6874847412109375,-0.730926513671875
16.72,0.0033388049341738224,0.011949337087571621,-0.03978735953569412,-0.0217742919921875,-0.690826416015625,-0.7212982177734375
16.74,0.0014884406700730324,0.01050297450274229,-0.04713315889239311,-0.0190277099609375,-0.694122314453125,-0.71441650390625
16.76,-0.011087805032730103,0.01649109274148941,-0.022101573646068573,-0.0065460205078125,-0.688018798828125,-0.716552734375
16.78,-0.02377030998468399,0.0002426139690214768,0.012194614857435226,0.007965087890625,-0.6776580810546875,-0.7132415771484375
16.8,-0.04355253651738167,-0.01804398186504841,0.019578227773308754,0.009307861328125,-0.6758880615234375,-0.7124786376953125
16.82,-0.0362863689661026,-0.02327948994934559,-0.0018642127979546785,-0.00469970703125,-0.6850433349609375,-0.7169647216796875
16.84,-0.024099742993712425,-0.01407693699002266,-0.023209715262055397,-0.0258026123046875,-0.6960296630859375,-0.7347412109375
16.86,-0.00815166998654604,0.014125672169029713,-0.033136382699012756,-0.0246124267578125,-0.7006072998046875,-0.742462158203125
16.88,-0.0029949909076094627,0.01420450210571289,-0.025480326265096664,-0.016082763671875,-0.6955718994140625,-0.7471923828125
16.9,0.02214285358786583,-0.0112196309491992,0.0057103498838841915,0.000030517578125,-0.6878509521484375,-0.7374725341796875
16.92,0.03371721878647804,-0.03485758230090141,0.04301431402564049,0.020538330078125,-0.680084228515625,-0.7343292236328125
16.94,0.04219592362642288,-0.020673319697380066,0.05870538949966431,0.0221710205078125,-0.6739501953125,-0.730316162109375
16.96,0.03327326849102974,-0.006595584563910961,0.04707110673189163,0.005767822265625,-0.678314208984375,-0.733428955078125
16.98,0.00717562111094594,-0.006138586439192295,0.020836839452385902,-0.0133209228515625,-0.6867828369140625,-0.72564697265625
17,-0.0034820830915123224,-0.030557643622159958,0.002472745021805167,-0.0229949951171875,-0.69769287109375,-0.7178497314453125
17.02,0.005571865476667881,-0.028485437855124474,0.003981425892561674,-0.015655517578125,-0.6953125,-0.7215576171875
17.04,0.041009485721588135,0.01058926060795784,0.0038104509003460407,-0.0094451904296875,-0.689239501953125,-0.7388763427734375
17.06,0.06226710230112076,0.025646507740020752,-0.005673864856362343,-0.011932373046875,-0.68292236328125,-0.75238037109375
17.08,0.039990026503801346,-0.011359181255102158,-0.010395915247499943,-0.0116119384765625,-0.6833953857421875,-0.73541259765625
17.1,0.023132216185331345,-0.03205274045467377,-0.0058067562058568,-0.0066375732421875,-0.68634033203125,-0.710052490234375
17.12,0.03130918741226196,-0.018373947590589523,0.006450974848121405,-0.0002288818359375,-0.6852569580078125,-0.71551513671875
17.14,0.03469645977020264,-0.007902397774159908,-0.000642354425508529,-0.005401611328125,-0.684722900390625,-0.7285614013671875
17.16,0.038544729351997375,0.0017904432024806738,-0.019107114523649216,-0.0169219970703125,-0.6893157958984375,-0.730316162109375
17.18,0.029991189017891884,0.0009896307019516826,-0.033183518797159195,-0.0250396728515625,-0.692169189453125,-0.728179931640625
17.2,0.02720099501311779,0.007674165070056915,-0.028372518718242645,-0.02203369140625,-0.6923065185546875,-0.7215728759765625
17.22,0.02792084775865078,0.012767726555466652,-0.022764168679714203,-0.0134735107421875,-0.68914794921875,-0.719329833984375
17.24,0.012014584615826607,-0.0009462211164645851,-0.0252238642424345,-0.0091094970703125,-0.6898193359375,-0.7149810791015625
17.26,-0.00555322365835309,-0.009033442474901676,-0.020387297496199608,-0.0084381103515625,-0.69207763671875,-0.7061614990234375
17.28,-0.012725116685032845,0.003692472819238901,-0.006836866959929466,-0.006072998046875,-0.6950531005859375,-0.70892333984375
17.3,-0.0062491074204444885,-0.012442288920283318,0.013423130847513676,-0.00531005859375,-0.6920013427734375,-0.722808837890625
17.32,0.017166202887892723,-0.02376391924917698,0.014789865352213383,-0.0058441162109375,-0.6930999755859375,-0.7291107177734375
17.34,0.043721914291381836,0.003421362955123186,-0.0036535905674099922,-0.0165863037109375,-0.6942596435546875,-0.74151611328125
17.36,0.060024719685316086,0.01040603592991829,-0.016201872378587723,-0.02685546875,-0.694427490234375,-0.7465057373046875
17.38,0.05113855004310608,-0.006030461750924587,-0.026320021599531174,-0.024749755859375,-0.692230224609375,-0.7328033447265625
17.4,0.02990436926484108,-0.0075718993321061134,-0.007801463827490807,-0.0120086669921875,-0.694732666015625,-0.71307373046875
17.42,0.01582583412528038,-0.004035487771034241,0.006845122668892145,0.000701904296875,-0.6909027099609375,-0.7053070068359375
17.44,0.020607806742191315,-0.004248807206749916,-0.007762582041323185,-0.003570556640625,-0.6879119873046875,-0.709259033203125
17.46,0.009847571142017841,0.004170776344835758,-0.008135956712067127,-0.0104217529296875,-0.6921234130859375,-0.713470458984375
17.48,-0.020965736359357834,-0.007182012777775526,-0.0060933125205338,-0.0078277587890625,-0.6923370361328125,-0.7110443115234375
17.5,-0.028300613164901733,-0.03502003476023674,-0.008228901773691177,-0.0065155029296875,-0.6914520263671875,-0.7052459716796875
17.52,0.010931210592389107,-0.020723121240735054,-0.0234651118516922,-0.0076751708984375,-0.694061279296875,-0.719390869140625
17.54,0.05615994334220886,0.01643410138785839,-0.025178590789437294,-0.0162353515625,-0.693572998046875,-0.7436065673828125
17.56,0.07032129913568497,0.014984807930886745,-0.040456078946590424,-0.014801025390625,-0.691253662109375,-0.7490386962890625
17.58,0.06906668841838837,0.013115801848471165,-0.05024293065071106,-0.0179595947265625,-0.6964111328125,-0.7264251708984375
17.6,0.03248550370335579,0.013340839184820652,-0.04490622133016586,-0.0115966796875,-0.69708251953125,-0.70855712890625
17.62,-0.004701544530689716,0.008645686320960522,-0.031321704387664795,-0.000274658203125,-0.6935577392578125,-0.6932373046875
17.64,-0.029934197664260864,-0.0001371527905575931,-0.03490684926509857,0.0035247802734375,-0.6913604736328125,-0.688385009765625
17.66,-0.02213193289935589,0.018096977844834328,-0.024652082473039627,-0.0013885498046875,-0.69232177734375,-0.6976318359375
17.68,-0.02485155314207077,0.020769193768501282,-0.005803294479846954,0.0040130615234375,-0.6888275146484375,-0.713714599609375
17.7,-0.038123417645692825,-0.00039254993316717446,-0.002341451123356819,0.011383056640625,-0.68597412109375,-0.711639404296875
17.72,-0.02448137477040291,-0.0031401331070810556,-0.002082591876387596,0.0047454833984375,-0.6934814453125,-0.7136688232421875
17.74,-0.0033577135764062405,0.010822287760674953,0.02075294964015484,0.0073394775390625,-0.6946563720703125,-0.7279510498046875
17.76,0.03396143019199371,-0.001139566651545465,0.04905462637543678,0.005859375,-0.6842498779296875,-0.7428131103515625
17.78,0.0745362862944603,0.009247826412320137,0.04542633891105652,0.005859375,-0.6842498779296875,-0.7428131103515625
17.8,0.07849746942520142,0.038480281829833984,0.01775635965168476,-0.0126190185546875,-0.6867218017578125,-0.7374420166015625
17.82,0.03136857599020004,0.024225978180766106,-0.010032127611339092,-0.027374267578125,-0.695404052734375,-0.7186737060546875
17.84,-0.023980166763067245,0.0005906891310587525,-0.02407524175941944,-0.02618408203125,-0.703094482421875,-0.6866455078125
17.86,-0.06872047483921051,-0.006110090296715498,-0.02791578695178032,-0.017059326171875,-0.7028350830078125,-0.680328369140625
17.88,-0.07303159683942795,0.013227388262748718,-0.024564731866121292,-0.012603759765625,-0.6980743408203125,-0.693572998046875
17.9,-0.052439771592617035,0.0061535001732409,-0.040107473731040955,-0.007598876953125,-0.697906494140625,-0.71319580078125
17.92,-0.010892062447965145,0.0044346959330141544,-0.05729684606194496,-0.015289306640625,-0.7032318115234375,-0.727386474609375
17.94,0.017232783138751984,-0.0005656554130837321,-0.043116576969623566,-0.01153564453125,-0.7025604248046875,-0.7396392822265625
17.96,0.03719210997223854,0.015392538160085678,-0.01185133308172226,0.003875732421875,-0.69219970703125,-0.7368316650390625
17.98,0.030823959037661552,0.015693742781877518,-0.009198292158544064,0.00970458984375,-0.686981201171875,-0.7306976318359375
18,-0.0038373488932847977,0.009298160672187805,-0.019766246899962425,0.001922607421875,-0.693084716796875,-0.7111053466796875
18.02,-0.03130306303501129,0.002969158347696066,-0.018578743562102318,-0.0011749267578125,-0.6992034912109375,-0.691619873046875
18.04,-0.04201855510473251,-0.0015158712631091475,-0.00708720413967967,-0.0006103515625,-0.697052001953125,-0.691986083984375
18.06,-0.07042862474918365,0.0020423782989382744,0.008975119329988956,0.0066680908203125,-0.6912994384765625,-0.6987762451171875
18.08,-0.09864161908626556,0.010253170505166054,0.019050655886530876,0.0066680908203125,-0.6912994384765625,-0.6987762451171875
18.1,-0.09851458668708801,-0.0017869811272248626,0.018695656210184097,0.0047760009765625,-0.69317626953125,-0.70721435546875
18.12,-0.0853886678814888,-0.021086642518639565,0.019153455272316933,0.003662109375,-0.6948089599609375,-0.722198486328125
18.14,-0.03574281558394432,-0.007127950433641672,0.039566051214933395,0.0047454833984375,-0.6928863525390625,-0.7372894287109375
18.16,0.02521640621125698,0.02574797347187996,0.043239083141088486,0.0040283203125,-0.6865081787109375,-0.7618255615234375
18.18,0.05088901147246361,0.030367227271199226,0.026820695027709007,-0.0027923583984375,-0.6900787353515625,-0.76776123046875
18.2,0.03886617347598076,0.011807923205196857,0.012081163935363293,-0.008087158203125,-0.6933746337890625,-0.748748779296875
18.22,0.02468004636466503,0.00965582299977541,0.01715901307761669,-0.007568359375,-0.6912841796875,-0.720184326171875
18.24,0.01486469991505146,0.023604394868016243,0.022786539047956467,-0.0029144287109375,-0.683563232421875,-0.7147674560546875
18.26,-0.026088858023285866,0.030725155025720596,0.0021787320729345083,-0.010009765625,-0.681884765625,-0.708465576171875
18.28,-0.07909321784973145,0.010891263373196125,-0.02347363345324993,-0.02166748046875,-0.6872100830078125,-0.6938629150390625
18.3,-0.11137339472770691,-0.010892861522734165,-0.01961258426308632,-0.019439697265625,-0.693145751953125,-0.687652587890625
18.32,-0.1083456501364708,-0.0031348068732768297,-0.005020591430366039,-0.0030670166015625,-0.69085693359375,-0.699371337890625
18.34,-0.07141000032424927,0.007995075546205044,0.003192064817994833,0.001007080078125,-0.6855926513671875,-0.7279205322265625
18.36,-0.014083861373364925,0.0246140006929636,-0.004836034029722214,-0.0025177001953125,-0.68707275390625,-0.7513275146484375
18.38,0.015686018392443657,0.03893914446234703,-0.01031788531690836,-0.0080413818359375,-0.6884765625,-0.7574920654296875
18.4,-0.0003193130251020193,0.048174187541007996,0.0009893643436953425,-0.0036468505859375,-0.69061279296875,-0.7460479736328125
18.42,-0.03140266239643097,0.02201661840081215,0.02635490894317627,0.0113525390625,-0.68951416015625,-0.7244415283203125
18.44,-0.04682662710547447,-0.013593040406703949,0.041077662259340286,0.02197265625,-0.688201904296875,-0.7111358642578125
18.46,-0.012548549100756645,0.002644518855959177,0.04644099995493889,0.0125732421875,-0.6827392578125,-0.7235870361328125
18.48,0.020796624943614006,0.02195962704718113,0.04857712239027023,0.0030670166015625,-0.681365966796875,-0.7501373291015625
18.5,0.030551517382264137,0.013352557085454464,0.04183639585971832,-0.0041351318359375,-0.677398681640625,-0.7547149658203125
18.52,0.03664935752749443,0.018550248816609383,0.013316337950527668,-0.017974853515625,-0.6794281005859375,-0.7451934814453125
18.54,0.015526228584349155,0.03641340136528015,-0.009031045250594616,-0.0257415771484375,-0.68707275390625,-0.7345123291015625
18.56,-0.006779076531529427,0.024967135861516,-0.01575526036322117,-0.023101806640625,-0.6889190673828125,-0.721099853515625
18.58,-0.024090422317385674,0.0022098910994827747,-0.011888884007930756,-0.0155029296875,-0.6871795654296875,-0.711151123046875
18.6,-0.03166152164340019,-0.0006135923322290182,-0.015797872096300125,-0.006927490234375,-0.688507080078125,-0.713623046875
18.62,-0.002957440447062254,0.0174437053501606,-0.03761022537946701,-0.0089874267578125,-0.6873779296875,-0.72698974609375
18.64,0.003290601773187518,0.033197902143001556,-0.05883269011974335,-0.01116943359375,-0.689849853515625,-0.735931396484375
18.66,-0.004718322306871414,0.029449768364429474,-0.04505722224712372,-0.01116943359375,-0.689849853515625,-0.735931396484375
18.68,-0.00196354859508574,0.016377108171582222,-0.032165393233299255,0.0065765380859375,-0.682861328125,-0.728759765625
18.7,0.0011614045361056924,0.006477074231952429,-0.024923192337155342,0.008270263671875,-0.6804351806640625,-0.728057861328125
18.72,0.017108146101236343,0.03295661881566048,-0.0062712118960917,0.0093231201171875,-0.67779541015625,-0.7300262451171875
18.74,0.018144914880394936,0.030966971069574356,0.006493852008134127,0.009033203125,-0.67791748046875,-0.7248687744140625
18.76,0.012121377512812614,0.014073740690946579,0.0038248319178819656,0.009033203125,-0.67791748046875,-0.7248687744140625
18.78,-0.0067812069319188595,0.003168895374983549,0.0073441993445158005,0.0020904541015625,-0.6857452392578125,-0.7180633544921875
18.8,-0.03031795844435692,0.005791576579213142,-0.0012373046483844519,0.003692626953125,-0.6878509521484375,-0.7157440185546875
18.82,-0.03476517274975777,0.008434231393039227,-0.02189544588327408,-0.004974365234375,-0.6937408447265625,-0.7161407470703125
18.84,-0.01010962575674057,0.037085048854351044,-0.0305725559592247,-0.0111846923828125,-0.699432373046875,-0.728485107421875
18.86,-0.013340572826564312,0.01998382806777954,-0.013557353988289833,-0.0010528564453125,-0.6956329345703125,-0.7333984375
18.88,-0.016716662794351578,0.0014000238152220845,-0.0003014698449987918,0.01666259765625,-0.6885528564453125,-0.723175048828125
18.9,-0.002407231368124485,-0.007209177128970623,0.014855378307402134,0.0244293212890625,-0.6820831298828125,-0.7226715087890625
18.92,-0.00046072687837295234,-0.024292290210723877,0.024390295147895813,0.024383544921875,-0.67864990234375,-0.726898193359375
18.94,0.009800166822969913,-0.012538694776594639,0.03182344138622284,0.0148468017578125,-0.6796417236328125,-0.72979736328125
18.96,0.012984507717192173,0.018547585234045982,0.0331057570874691,0.010345458984375,-0.6793670654296875,-0.738250732421875
18.98,0.003117496380582452,0.008361793123185635,0.011579956859350204,-0.0025634765625,-0.68353271484375,-0.7378997802734375
19,-0.008316786028444767,-0.0016053534345701337,0.00242134602740407,-0.0095672607421875,-0.69189453125,-0.72576904296875
19.02,-0.01564953289926052,-0.005353220272809267,0.005858421791344881,-0.00421142578125,-0.6908721923828125,-0.7213592529296875
19.04,-0.00902811624109745,0.004656536970287561,0.002377403900027275,-0.000732421875,-0.68359375,-0.7232208251953125
19.06,-0.00589650496840477,0.012354404665529728,-0.004094077739864588,-0.0032196044921875,-0.6857452392578125,-0.7263336181640625
19.08,-0.017903100699186325,0.006113286130130291,-0.000570981705095619,0.0015869140625,-0.68414306640625,-0.72509765625
19.1,-0.030671892687678337,-0.0051566786132752895,0.005939648021012545,0.0052490234375,-0.6800994873046875,-0.720977783203125
19.12,-0.030656179413199425,-0.00726377172395587,0.011203385889530182,0.00787353515625,-0.681182861328125,-0.723541259765625
19.14,-0.03229641914367676,-0.0037025928031653166,0.015151255764067173,0.0079803466796875,-0.6802825927734375,-0.7342987060546875
19.16,-0.010219880379736423,0.006803577765822411,0.018332401290535927,0.000762939453125,-0.68017578125,-0.7384796142578125
19.18,0.013374394737184048,-0.007192398887127638,0.025233451277017593,0.0018768310546875,-0.6809844970703125,-0.745391845703125
19.2,0.013290238566696644,-0.014364025555551052,0.02804734744131565,0.0019073486328125,-0.6785736083984375,-0.7401123046875
19.22,0.0051508196629583836,0.006644587032496929,0.017713217064738274,-0.004638671875,-0.684722900390625,-0.7340850830078125
19.24,-0.009617207571864128,0.011552260257303715,-0.003578755771741271,-0.0133209228515625,-0.689300537109375,-0.7341766357421875
