timestamp,gyro_x,gyro_y,gyro_z,acc_x,acc_y,acc_z
0,0.1528199017047882,0.0087820403277874,-0.009759154170751572,-0.076812744140625,-0.7229461669921875,-0.6511688232421875
0.02,0.06711804866790771,-0.05955387279391289,0.006826480850577354,-0.076812744140625,-0.7229461669921875,-0.6511688232421875
0.04,-0.08246664702892303,-0.06870423257350922,0.021494640037417412,-0.0699920654296875,-0.7419891357421875,-0.6190948486328125
0.06,-0.07542099058628082,-0.05348825827240944,-0.008214786648750305,-0.0716552734375,-0.7520904541015625,-0.6319580078125
0.08,0.03796948492527008,-0.026029469445347786,-0.028261732310056686,-0.08795166015625,-0.7478485107421875,-0.676025390625
0.1,0.10510537773370743,0.02322862297296524,-0.008290686644613743,-0.08349609375,-0.738800048828125,-0.7075653076171875
0.12,0.09291023015975952,0.009793508797883987,0.013044961728155613,-0.0637359619140625,-0.7361297607421875,-0.69287109375
0.14,0.06162208318710327,-0.01678776927292347,0.017072992399334908,-0.056854248046875,-0.7406005859375,-0.6573486328125
0.16,0.040581248700618744,-0.019592076539993286,0.005185707006603479,-0.0592803955078125,-0.7474365234375,-0.64739990234375
0.18,0.043654002249240875,0.008846488781273365,0.02106853388249874,-0.0639495849609375,-0.7509918212890625,-0.6538543701171875
0.2,0.047809332609176636,0.00384427304379642,0.014054832980036736,-0.0629730224609375,-0.75128173828125,-0.6610260009765625
0.22,0.040702421218156815,0.020116986706852913,0.0030514500103890896,-0.0758819580078125,-0.7490081787109375,-0.65673828125
0.24,0.02315858192741871,0.03363439440727234,-0.022612102329730988,-0.0798797607421875,-0.753265380859375,-0.659423828125
0.26,0.009326123632490635,0.03166711702942848,-0.02913231961429119,-0.0890350341796875,-0.7518157958984375,-0.65509033203125
0.28,-0.0024711471050977707,0.030070284381508827,-0.035352133214473724,-0.0833892822265625,-0.7479248046875,-0.6553497314453125
0.3,0.010380469262599945,0.042216960340738297,-0.035708993673324585,-0.076751708984375,-0.7513885498046875,-0.656646728515625
0.32,0.03449006751179695,0.027658259496092796,-0.040102411061525345,-0.0720062255859375,-0.748809814453125,-0.6622467041015625
0.34,0.04222787916660309,0.007051251363009214,-0.022639531642198563,-0.0673675537109375,-0.7465667724609375,-0.658538818359375
0.36,0.02864069864153862,0.007483748719096184,-0.0027457191608846188,-0.056060791015625,-0.7453155517578125,-0.6525421142578125
0.38,-0.01762852817773819,0.0023337281309068203,0.0117914117872715,-0.0548553466796875,-0.7422027587890625,-0.6457061767578125
0.4,-0.0253362488001585,-0.013613812625408173,0.022218486294150352,-0.06060791015625,-0.74798583984375,-0.64251708984375
0.42,0.015036473982036114,-0.026195118203759193,0.031862325966358185,-0.0654449462890625,-0.7431640625,-0.6487884521484375
0.44,0.06798437982797623,-0.02117346227169037,0.05510346591472626,-0.06683349609375,-0.739654541015625,-0.6666107177734375
0.46,0.15831267833709717,-0.0033755565527826548,0.09755798429250717,-0.0628204345703125,-0.7398834228515625,-0.6760711669921875
0.48,0.2526373267173767,0.045876942574977875,0.12493980675935745,-0.05950927734375,-0.739288330078125,-0.6878509521484375
0.5,0.2750094532966614,0.08724622428417206,0.143382728099823,-0.060791015625,-0.7430877685546875,-0.697906494140625
0.52,0.21679969131946564,0.08719109743833542,0.11372523009777069,-0.0614013671875,-0.7527923583984375,-0.677825927734375
0.54,0.1274453103542328,0.06416939944028854,0.07865539938211441,-0.0706634521484375,-0.7645111083984375,-0.6448822021484375
0.56,0.08653036504983902,0.0352565236389637,0.04850601777434349,-0.0838775634765625,-0.77899169921875,-0.619720458984375
0.58,0.06604240089654922,0.014885472133755684,0.016321714967489243,-0.092315673828125,-0.7722625732421875,-0.6090545654296875
0.6,0.02190849371254444,0.01955612376332283,0.011238273233175278,-0.0968780517578125,-0.7734375,-0.6041259765625
0.62,-0.03762327507138252,0.03237232193350792,0.001443166984245181,-0.084808349609375,-0.7713470458984375,-0.6109466552734375
0.64,-0.08614633977413177,0.025192704051733017,0.015532620251178741,-0.0812835693359375,-0.765869140625,-0.623016357421875
0.66,-0.05938343331217766,0.005139101762324572,0.015990417450666428,-0.0742340087890625,-0.7612762451171875,-0.6347198486328125
0.68,-0.02887851931154728,-0.015291071496903896,-0.0012695288751274347,-0.0732879638671875,-0.7537384033203125,-0.6526641845703125
0.7,-0.006755108013749123,-0.0020812603179365396,0.009102418087422848,-0.0802764892578125,-0.7594451904296875,-0.6537628173828125
0.72,0.038050178438425064,0.007707454264163971,0.01293310895562172,-0.0796661376953125,-0.763916015625,-0.6565399169921875
0.74,0.0319502092897892,0.021095963194966316,0.008207063190639019,-0.074737548828125,-0.7559814453125,-0.65234375
0.76,0.03713831305503845,0.04535390064120293,0.0162466149777174,-0.080108642578125,-0.76458740234375,-0.646240234375
0.78,0.059788499027490616,0.010403105989098549,0.0166785791516304,-0.0781707763671875,-0.7588348388671875,-0.64642333984375
0.8,0.03904753550887108,-0.02653254196047783,0.012653211131691933,-0.075439453125,-0.7541351318359375,-0.6470489501953125
0.82,0.058825764805078506,-0.01756434701383114,0.050946272909641266,-0.079620361328125,-0.76416015625,-0.639984130859375
0.84,0.04567880555987358,0.039149533957242966,0.048869539052248,-0.072967529296875,-0.7529144287109375,-0.6488037109375
0.86,0.03154380992054939,0.0968511775135994,0.06043111905455589,-0.08197021484375,-0.756805419921875,-0.6460723876953125
0.88,0.065264493227005,0.10910917818546295,0.04145289957523346,-0.074188232421875,-0.77081298828125,-0.6453094482421875
0.9,0.10686440020799637,0.09492171555757523,0.021705295890569687,-0.07415771484375,-0.78167724609375,-0.6458587646484375
0.92,0.10623722523450851,0.035830434411764145,0.0187196247279644,-0.066986083984375,-0.7779083251953125,-0.6327056884765625
0.94,0.03882888704538345,0.01637231558561325,0.03405863419175148,-0.06195068359375,-0.7707366943359375,-0.6139373779296875
0.96,-0.03952823579311371,0.020506873726844788,0.040595896542072296,-0.0661773681640625,-0.7651519775390625,-0.602569580078125
0.98,-0.06351346522569656,0.01949993148446083,0.0252185370773077,-0.0835418701171875,-0.76446533203125,-0.6054229736328125
1,-0.06036560609936714,0.01906690187752247,0.0002868224401026964,-0.091583251953125,-0.768798828125,-0.6218414306640625
1.02,-0.027035079896450043,0.04374721273779869,-0.01101589947938919,-0.0930633544921875,-0.7780914306640625,-0.6397552490234375
1.04,0.011945076286792755,0.042688339948654175,-0.011864116415381432,-0.0845184326171875,-0.7704315185546875,-0.6517486572265625
1.06,0.027228690683841705,0.035895682871341705,-0.009820672683417797,-0.07421875,-0.7622528076171875,-0.65069580078125
1.08,0.026701917871832848,0.04147926717996597,-0.010335462167859077,-0.0711212158203125,-0.7620086669921875,-0.651611328125
1.1,0.047758202999830246,0.04332909733057022,-0.007158044259995222,-0.0777130126953125,-0.76495361328125,-0.64605712890625
1.12,0.04966342821717262,0.030843133106827736,0.00185036426410079,-0.0750579833984375,-0.759979248046875,-0.6416778564453125
1.14,0.021280255168676376,0.005372394807636738,-0.0055002267472445965,-0.0731201171875,-0.764251708984375,-0.628204345703125
1.16,0.0065564364194869995,-0.013949637301266193,-0.01834358647465706,-0.0751190185546875,-0.77178955078125,-0.617218017578125
1.18,-0.004809935111552477,0.003911118488758802,-0.02033856138586998,-0.08050537109375,-0.773193359375,-0.6200714111328125
1.2,-0.005143096670508385,0.01859498955309391,-0.003127083647996187,-0.07818603515625,-0.76806640625,-0.629302978515625
1.22,-0.0044378917664289474,0.013835920952260494,0.004659732803702354,-0.065643310546875,-0.7647247314453125,-0.63372802734375
1.24,-0.002630936913192272,-0.002281530061736703,0.02165895700454712,-0.063568115234375,-0.7668914794921875,-0.6302947998046875
1.26,-0.004822452086955309,0.0028929917607456446,0.03224342316389084,-0.0604095458984375,-0.766754150390625,-0.6326904296875
1.28,0.001386441639624536,0.005060538649559021,0.03622857853770256,-0.0604095458984375,-0.766754150390625,-0.6326904296875
1.3,-0.0060182115994393826,0.017297497019171715,0.04278341680765152,-0.066741943359375,-0.772369384765625,-0.629638671875
1.32,-0.002691923175007105,0.03524800017476082,0.05986812710762024,-0.066741943359375,-0.772369384765625,-0.629638671875
1.34,-0.005960420705378056,0.0213638786226511,0.05422915145754814,-0.0662994384765625,-0.76727294921875,-0.6333465576171875
1.36,-0.0007155913626775146,0.0070461914874613285,0.043768785893917084,-0.075531005859375,-0.7710113525390625,-0.6293182373046875
1.38,0.004649080336093903,-0.002160090021789074,0.027175694704055786,-0.083831787109375,-0.77313232421875,-0.63134765625
1.4,-0.0029851372819393873,0.0008354336023330688,0.011660117655992508,-0.0888519287109375,-0.7677459716796875,-0.6331634521484375
1.42,-0.021942850202322006,0.029985062777996063,0.012880644761025906,-0.091705322265625,-0.768707275390625,-0.6326751708984375
1.44,-0.0263019111007452,0.03645255044102669,-0.0004093278548680246,-0.0887603759765625,-0.7671051025390625,-0.639312744140625
1.46,-0.009081912226974964,0.0018849853659048676,-0.015796007588505745,-0.0910491943359375,-0.766998291015625,-0.6394500732421875
1.48,-0.0062427157536149025,-0.02448723278939724,-0.009647301398217678,-0.08746337890625,-0.7645111083984375,-0.6356658935546875
1.5,-0.018126273527741432,-0.008054730482399464,0.02750219777226448,-0.068939208984375,-0.7645416259765625,-0.6332855224609375
1.52,-0.003765709698200226,0.0026431872975081205,0.05739964172244072,-0.0567779541015625,-0.759429931640625,-0.634368896484375
1.54,0.04964185506105423,0.012265721336007118,0.0524861104786396,-0.0632781982421875,-0.7613525390625,-0.64862060546875
1.56,0.10955312848091125,0.008080829866230488,0.055080294609069824,-0.0725860595703125,-0.765869140625,-0.6599578857421875
1.58,0.12276186794042587,0.012926450930535793,0.05471917241811752,-0.07403564453125,-0.7636260986328125,-0.655242919921875
1.6,0.06889571249485016,0.01691453531384468,0.041974347084760666,-0.0789642333984375,-0.7664642333984375,-0.639984130859375
1.62,0.02424541860818863,0.02654079720377922,0.022291989997029305,-0.089996337890625,-0.775238037109375,-0.6190032958984375
1.64,0.005136705003678799,0.018989136442542076,0.011539743281900883,-0.09381103515625,-0.779937744140625,-0.6098480224609375
1.66,-0.01210033893585205,0.00857644435018301,-0.004818457178771496,-0.090179443359375,-0.7797088623046875,-0.60943603515625
1.68,-0.03725602477788925,0.01393126230686903,0.0008961536805145442,-0.08709716796875,-0.7756500244140625,-0.6111297607421875
1.7,-0.05439746007323265,0.0064744106493890285,0.012311793863773346,-0.078033447265625,-0.77081298828125,-0.615142822265625
1.72,-0.05043600872159004,0.01323883980512619,0.022047512233257294,-0.0732269287109375,-0.7660675048828125,-0.6269989013671875
1.74,-0.029040971770882607,0.0041044638492167,0.023809725418686867,-0.07257080078125,-0.764007568359375,-0.6412506103515625
1.76,0.007337274961173534,-0.0013401026371866465,0.015034076757729053,-0.0783843994140625,-0.7656402587890625,-0.6458282470703125
1.78,0.011754128150641918,-0.006873885169625282,0.015914518386125565,-0.08343505859375,-0.7672882080078125,-0.6458740234375
1.8,-0.007757521700114012,-0.010520817711949348,0.024353543296456337,-0.0811309814453125,-0.7662811279296875,-0.6302947998046875
1.82,-0.022067219018936157,-0.008522382006049156,0.021379590034484863,-0.079742431640625,-0.7677001953125,-0.625823974609375
1.84,-0.0161771047860384,-0.005893841851502657,0.015602661296725273,-0.08917236328125,-0.76715087890625,-0.6368255615234375
1.86,-0.019526297226548195,-0.0019257317762821913,0.009177519008517265,-0.08917236328125,-0.76715087890625,-0.6368255615234375
1.88,-0.03136644512414932,0.009677927009761333,0.01101669855415821,-0.0907745361328125,-0.767852783203125,-0.6329345703125
1.9,-0.03148362413048744,0.00040533312130719423,0.02328801155090332,-0.083465576171875,-0.766021728515625,-0.6293182373046875
1.92,-0.015412512235343456,-0.0203380286693573,0.036727387458086014,-0.075225830078125,-0.7679290771484375,-0.6287841796875
1.94,0.007358314003795385,-0.024639299139380455,0.05289863422513008,-0.0689697265625,-0.7614593505859375,-0.6354217529296875
1.96,0.02154017984867096,-0.030184267088770866,0.053456299006938934,-0.0760040283203125,-0.761199951171875,-0.642364501953125
1.98,0.037509556859731674,-0.026851586997509003,0.059595152735710144,-0.0870208740234375,-0.760101318359375,-0.6469879150390625
2,0.05814612656831741,-0.0014066817238926888,0.05469413846731186,-0.091064453125,-0.7586517333984375,-0.648162841796875
2.02,0.04240657761693001,0.003120692213997245,0.03455984219908714,-0.0926666259765625,-0.7662506103515625,-0.6502227783203125
2.04,0.022590264678001404,-0.00692022405564785,0.019093001261353493,-0.099517822265625,-0.7769012451171875,-0.630126953125
2.06,0.00018082863243762404,-0.0017281252657994628,0.014738465659320354,-0.096832275390625,-0.77581787109375,-0.6165313720703125
2.08,-0.03492336347699165,-0.004631503485143185,0.016222380101680756,-0.094451904296875,-0.776458740234375,-0.616363525390625
2.1,-0.04717550054192543,-0.009548497386276722,0.011242002248764038,-0.08758544921875,-0.7714080810546875,-0.6146392822265625
2.12,-0.03861290588974953,-0.022716498002409935,0.008227037265896797,-0.09405517578125,-0.7679443359375,-0.6261138916015625
2.14,-0.018246915191411972,-0.01738511584699154,0.007394000422209501,-0.0944976806640625,-0.7639312744140625,-0.640106201171875
2.16,0.012499546632170677,-0.015590677969157696,-0.0031193606555461884,-0.09814453125,-0.7642974853515625,-0.6505889892578125
2.18,0.034863173961639404,0.000604004948399961,-0.011726430617272854,-0.101593017578125,-0.766754150390625,-0.65374755859375
2.2,0.033070068806409836,0.011864915490150452,-0.01203695498406887,-0.0994415283203125,-0.7659759521484375,-0.64727783203125
2.22,0.02117692492902279,0.0018045579781755805,-0.013706757687032223,-0.0982818603515625,-0.765472412109375,-0.6346435546875
2.24,0.008293083868920803,-0.005287706386297941,-0.022705579176545143,-0.09454345703125,-0.76983642578125,-0.62591552734375
2.26,-0.0007107976707629859,0.018142517656087875,-0.020613664761185646,-0.094482421875,-0.7713623046875,-0.623687744140625
2.28,-0.004448277875781059,0.03479153662919998,-0.011884888634085655,-0.0904083251953125,-0.7702789306640625,-0.628753662109375
2.3,-0.004786232952028513,0.022241655737161636,-0.004026965703815222,-0.08551025390625,-0.7686309814453125,-0.6293792724609375
2.32,0.004818457178771496,0.012568522244691849,0.008981777355074883,-0.082000732421875,-0.768341064453125,-0.6298065185546875
2.34,0.01631718873977661,0.01389690674841404,0.02166801132261753,-0.079437255859375,-0.761627197265625,-0.6366119384765625
2.36,0.036251746118068695,0.011303254403173923,0.030710775405168533,-0.081817626953125,-0.761260986328125,-0.641510009765625
2.38,0.055937301367521286,0.0013422331539914012,0.03135179728269577,-0.0843505859375,-0.763427734375,-0.6412200927734375
2.4,0.08114678412675858,0.00007163903501350433,0.02581561729311943,-0.089111328125,-0.76702880859375,-0.6402435302734375
2.42,0.08705980330705643,-0.011902199126780033,0.015902001410722733,-0.0956268310546875,-0.7723846435546875,-0.6407470703125
2.44,0.053639527410268784,-0.02395619824528694,0.0017449031583964825,-0.1051025390625,-0.7643585205078125,-0.63385009765625
2.46,0.037758298218250275,-0.015277223661541939,-0.011008442379534245,-0.1082000732421875,-0.771240234375,-0.621307373046875
2.48,0.03700622171163559,-0.005182777531445026,-0.029153624549508095,-0.1030731201171875,-0.7773895263671875,-0.6237640380859375
2.5,0.024920795112848282,-0.0044080642983317375,-0.0350959338247776,-0.1030731201171875,-0.7773895263671875,-0.6237640380859375
2.52,0.017239706590771675,-0.0046690539456903934,-0.029274798929691315,-0.0941162109375,-0.7792205810546875,-0.621307373046875
2.54,0.014610101468861103,-0.0224994495511055,-0.01950605772435665,-0.088134765625,-0.7729949951171875,-0.621917724609375
2.56,0.005617672111839056,-0.027757860720157623,-0.005542570725083351,-0.083709716796875,-0.7702484130859375,-0.621002197265625
2.58,-0.0060142166912555695,-0.01233123429119587,0.014035657979547977,-0.080474853515625,-0.7668609619140625,-0.6204376220703125
2.6,0.016323313117027283,0.004768656101077795,0.0029198897536844015,-0.0856475830078125,-0.7704925537109375,-0.6278839111328125
2.62,0.05257852375507355,0.024821193888783455,-0.017068466171622276,-0.1006622314453125,-0.7760162353515625,-0.639251708984375
2.64,0.06258109211921692,0.047157660126686096,-0.023497335612773895,-0.10418701171875,-0.7806549072265625,-0.6399993896484375
2.66,0.04381832107901573,0.05285309627652168,-0.014734204858541489,-0.09478759765625,-0.777740478515625,-0.623992919921875
2.68,0.0021550299134105444,0.03154540807008743,-0.012402074411511421,-0.085906982421875,-0.776031494140625,-0.61212158203125
2.7,-0.017726533114910126,0.01483567152172327,0.010943461209535599,-0.0856781005859375,-0.7737884521484375,-0.6024627685546875
2.72,-0.010667025111615658,0.026493392884731293,-0.0016202671686187387,-0.0804595947265625,-0.770416259765625,-0.6165313720703125
2.74,0.0142316659912467,0.022895995527505875,-0.0051899682730436325,-0.0938873291015625,-0.7741241455078125,-0.6288299560546875
2.76,0.04566522315144539,0.0282132625579834,-0.00469621829688549,-0.09259033203125,-0.7738037109375,-0.6374969482421875
2.78,0.03826882690191269,0.021496502682566643,0.0015403723809868097,-0.08587646484375,-0.77301025390625,-0.6340484619140625
2.8,0.02123285084962845,0.005944175645709038,0.012338957749307156,-0.08428955078125,-0.7735137939453125,-0.6224822998046875
2.82,0.010213755071163177,-0.00022956448083277792,0.012601811438798904,-0.087066650390625,-0.773040771484375,-0.6146392822265625
2.84,0.015921708196401596,0.00908510759472847,0.0009768474847078323,-0.0917816162109375,-0.7746734619140625,-0.62127685546875
2.86,0.04084250330924988,0.01593955233693123,-0.012556271627545357,-0.1000213623046875,-0.7795562744140625,-0.6285552978515625
2.88,0.049494314938783646,0.021677331998944283,-0.020371317863464355,-0.0967864990234375,-0.781219482421875,-0.630584716796875
2.9,0.041840922087430954,0.021826734766364098,-0.021273596212267876,-0.091461181640625,-0.7803497314453125,-0.622314453125
2.92,0.029387716203927994,0.01375096570700407,-0.015664713457226753,-0.08929443359375,-0.777069091796875,-0.61602783203125
2.94,0.015515043400228024,-0.0028394623659551144,-0.010237190872430801,-0.081024169921875,-0.778289794921875,-0.609527587890625
2.96,0.0060325926169753075,0.007739146240055561,-0.01091762911528349,-0.0828094482421875,-0.78045654296875,-0.6144561767578125
2.98,0.01474618911743164,0.024060595780611038,-0.00210682675242424,-0.0894012451171875,-0.777069091796875,-0.6197509765625
3,0.02479642629623413,0.03140879049897194,-0.0023044333793222904,-0.0875396728515625,-0.7761688232421875,-0.62677001953125
3.02,0.030764836817979813,0.01948634907603264,-0.0070312777534127235,-0.08795166015625,-0.7770233154296875,-0.624542236328125
3.04,0.027480360120534897,0.011619904078543186,-0.013019927777349949,-0.0875091552734375,-0.7792510986328125,-0.6177825927734375
3.06,0.027666514739394188,0.01564474031329155,-0.02123098634183407,-0.086273193359375,-0.7833709716796875,-0.61444091796875
3.08,0.02666596509516239,0.014946458861231804,-0.014317953027784824,-0.0874176025390625,-0.78228759765625,-0.617523193359375
3.1,0.0206951592117548,0.01588043011724949,-0.00854342058300972,-0.084136962890625,-0.7789306640625,-0.614990234375
3.12,0.004735899157822132,0.002457298804074526,-0.006160424090921879,-0.08294677734375,-0.77911376953125,-0.611236572265625
3.14,0.0012032161466777325,0.005019525997340679,-0.0033726270776242018,-0.08380126953125,-0.77947998046875,-0.61126708984375
3.16,0.018004033714532852,0.019334016367793083,-0.005309011787176132,-0.0841064453125,-0.778289794921875,-0.6187591552734375
3.18,0.034745462238788605,0.03099227137863636,-0.008190019056200981,-0.0863800048828125,-0.781585693359375,-0.62493896484375
3.2,0.03973063454031944,0.030601318925619125,-0.009313873015344143,-0.0851898193359375,-0.7841033935546875,-0.6240386962890625
3.22,0.03716867417097092,0.01895824447274208,-0.002172074280679226,-0.082000732421875,-0.7794036865234375,-0.6163787841796875
3.24,0.02058863267302513,0.00806298665702343,-0.0037297571543604136,-0.0797271728515625,-0.7812347412109375,-0.61053466796875
3.26,0.006354035809636116,0.009265136905014515,-0.0008287757518701255,-0.0822296142578125,-0.783447265625,-0.605499267578125
3.28,0.006223008502274752,0.023564448580145836,0.0056799896992743015,-0.0824432373046875,-0.783477783203125,-0.6101837158203125
3.3,0.018448248505592346,0.023375364020466805,-0.0033870083279907703,-0.0848846435546875,-0.7819976806640625,-0.6165008544921875
3.32,0.02136973664164543,0.019769975915551186,-0.006126868538558483,-0.08380126953125,-0.785247802734375,-0.617462158203125
3.34,0.01714995875954628,0.0054517569951713085,-0.006581736262887716,-0.0834808349609375,-0.782958984375,-0.6157684326171875
3.36,0.006697317585349083,-0.005883455276489258,-0.002436526119709015,-0.081787109375,-0.77996826171875,-0.609832763671875
3.38,-0.0010365023044869304,-0.01721280813217163,-0.0009803095599636436,-0.07879638671875,-0.7828826904296875,-0.60675048828125
3.4,-0.00014088122406974435,-0.01525671686977148,-0.0018991001415997744,-0.08148193359375,-0.785491943359375,-0.607574462890625
3.42,0.0057159424759447575,-0.00407596817240119,-0.010027600452303886,-0.085296630859375,-0.784576416015625,-0.6146240234375
3.44,0.015235678292810917,0.02304033748805523,-0.009379653260111809,-0.087310791015625,-0.7841644287109375,-0.6204071044921875
3.46,0.02389254979789257,0.012197543866932392,-0.01601039245724678,-0.0851287841796875,-0.7837982177734375,-0.621856689453125
3.48,0.026379676535725594,0.001347293145954609,-0.021033912897109985,-0.0846405029296875,-0.78375244140625,-0.61663818359375
3.5,0.011569837108254433,0.0076030585914850235,-0.00475480780005455,-0.0815887451171875,-0.7851409912109375,-0.6086578369140625
3.52,-0.0030517163686454296,0.005056277383118868,0.00392736354842782,-0.073486328125,-0.7833251953125,-0.60394287109375
3.54,-0.0004242415598127991,-0.0040884846821427345,-0.006268548313528299,-0.07672119140625,-0.7856597900390625,-0.60516357421875
3.56,0.01236106175929308,0.006612895056605339,-0.004649346694350243,-0.084564208984375,-0.7878875732421875,-0.6110992431640625
3.58,0.010761833749711514,0.014278005808591843,-0.007771902717649937,-0.08453369140625,-0.7863922119140625,-0.6173248291015625
3.6,0.006615824531763792,0.012842562049627304,-0.002040247665718198,-0.081268310546875,-0.78350830078125,-0.6152496337890625
3.62,0.0035718316212296486,0.013485182076692581,0.002808303339406848,-0.0792388916015625,-0.7848052978515625,-0.6113128662109375
3.64,-0.007248591631650925,0.016747821122407913,0.010482735000550747,-0.0782318115234375,-0.7839508056640625,-0.6089630126953125
3.66,-0.0046996804885566235,0.009789779782295227,0.01212670374661684,-0.077117919921875,-0.7838897705078125,-0.6094207763671875
3.68,0.0026442527305334806,0.004327903036028147,0.0037816886324435472,-0.077728271484375,-0.7850341796875,-0.611236572265625
3.7,-0.006554571911692619,-0.0008314388687722385,0.007802795618772507,-0.0860595703125,-0.7841339111328125,-0.6122894287109375
3.72,-0.004553738981485367,0.0031499869655817747,0.0043502734042704105,-0.0836334228515625,-0.7835235595703125,-0.61273193359375
3.74,0.01329716295003891,-0.006302903406322002,-0.0021816615480929613,-0.0875396728515625,-0.781890869140625,-0.6168212890625
3.76,0.019355321303009987,-0.003431216813623905,-0.004040281753987074,-0.083465576171875,-0.7849273681640625,-0.6171875
3.78,0.03290069103240967,0.0008572715451009572,-0.006375607568770647,-0.0839385986328125,-0.7883453369140625,-0.6165008544921875
3.8,0.03002447821199894,0.00018482338055036962,-0.0054845139384269714,-0.0829315185546875,-0.7845001220703125,-0.617095947265625
3.82,0.008802013471722603,-0.005320996046066284,0.0009518137667328119,-0.08233642578125,-0.7825469970703125,-0.6108245849609375
3.84,-0.0003376888344064355,-0.012716327793896198,0.003668770659714937,-0.079833984375,-0.7844696044921875,-0.6051788330078125
3.86,0.0046874298714101315,-0.0177566260099411,0.00010093380114994943,-0.083587646484375,-0.7855224609375,-0.6058502197265625
3.88,-0.0030985879711806774,-0.011582620441913605,-0.00043542683124542236,-0.084564208984375,-0.78436279296875,-0.6087646484375
3.9,-0.004479969386011362,-0.0026442527305334806,0.001547030289657414,-0.0841217041015625,-0.7871856689453125,-0.609344482421875
3.92,-0.0006479470757767558,0.004613393917679787,0.005340436939150095,-0.08294677734375,-0.786041259765625,-0.608978271484375
3.94,-0.0014998923288658261,-0.00509862182661891,0.016575781628489494,-0.073211669921875,-0.7882232666015625,-0.6066741943359375
3.96,-0.016118248924613,-0.034138262271881104,0.025543443858623505,-0.0715789794921875,-0.7855987548828125,-0.604156494140625
3.98,-0.03382107987999916,-0.019904466345906258,0.04270458593964577,-0.0736083984375,-0.7860107421875,-0.59881591796875
4,-0.03454972058534622,0.01666632853448391,0.04061799868941307,-0.079345703125,-0.7813568115234375,-0.609954833984375
4.02,-0.01404631044715643,0.030016222968697548,0.01871989108622074,-0.0916900634765625,-0.7833251953125,-0.6202850341796875
4.04,0.012496883049607277,0.036494627594947815,-0.017342504113912582,-0.10284423828125,-0.792388916015625,-0.6231842041015625
4.06,0.00250603468157351,0.022887205705046654,-0.031508125364780426,-0.1032257080078125,-0.795684814453125,-0.619171142578125
4.08,-0.01846129819750786,0.03782567381858826,-0.018787004053592682,-0.0916290283203125,-0.7893829345703125,-0.606689453125
4.1,-0.03136378154158592,0.026376746594905853,-0.0065476479940116405,-0.082611083984375,-0.781646728515625,-0.604217529296875
4.12,-0.028000475838780403,0.02214072272181511,-0.005714611150324345,-0.08209228515625,-0.77874755859375,-0.606231689453125
4.14,-0.01642131805419922,0.027524568140506744,0.0012069445801898837,-0.0773773193359375,-0.7841033935546875,-0.614013671875
4.16,-0.011330684646964073,0.01002307329326868,0.010084858164191246,-0.075347900390625,-0.7816009521484375,-0.6165771484375
4.18,-0.01302285771816969,0.0010852381819859147,0.02118837647140026,-0.0748138427734375,-0.7777862548828125,-0.6152801513671875
4.2,-0.02406458929181099,-0.004786499310284853,0.029141640290617943,-0.074554443359375,-0.7816162109375,-0.6128387451171875
4.22,-0.001990180229768157,0.013558685779571533,0.02713894285261631,-0.0810699462890625,-0.781219482421875,-0.617584228515625
4.24,0.026395387947559357,0.009304285980761051,0.011426292359828949,-0.0879974365234375,-0.7812957763671875,-0.629791259765625
4.26,0.02780872769653797,0.000943025341257453,0.009311476722359657,-0.0931854248046875,-0.783782958984375,-0.6281280517578125
4.28,0.013983193784952164,-0.012924853712320328,0.004773183725774288,-0.0866546630859375,-0.7818145751953125,-0.614654541015625
4.3,-0.00621182331815362,-0.014304104261100292,-0.008983907289803028,-0.088226318359375,-0.785980224609375,-0.6048126220703125
4.32,-0.013483584858477116,-0.00757935643196106,-0.0046693203039467335,-0.0875091552734375,-0.7870635986328125,-0.6019439697265625
4.34,-0.01395762711763382,0.0006892260862514377,-0.009838249534368515,-0.0876922607421875,-0.78350830078125,-0.615478515625
4.36,-0.0000500674286740832,-0.000029294771593413316,-0.011468370445072651,-0.0876922607421875,-0.78350830078125,-0.615478515625
4.38,0.010458500124514103,0.0041468082927167416,-0.0005424859118647873,-0.082305908203125,-0.786224365234375,-0.6197967529296875
4.4,0.004944957327097654,-0.00023861923546064645,0.015111308544874191,-0.0746917724609375,-0.7801971435546875,-0.616790771484375
4.42,-0.01429478358477354,-0.00857191625982523,0.028623921796679497,-0.0730133056640625,-0.7771453857421875,-0.61151123046875
4.44,-0.008984706364572048,-0.001702026231214404,0.028313130140304565,-0.078338623046875,-0.77960205078125,-0.6106109619140625
4.46,-0.004052532371133566,0.004345746245235205,0.02359853684902191,-0.082977294921875,-0.7830810546875,-0.6151123046875
4.48,0.0015534218400716782,0.02136973664164543,0.012762933038175106,-0.0894927978515625,-0.7858428955078125,-0.6164093017578125
4.5,-0.004521781112998724,0.005321528296917677,0.005323925521224737,-0.0902252197265625,-0.786529541015625,-0.6138153076171875
4.52,-0.028852419927716255,-0.005456284619867802,0.0092321140691638,-0.0882415771484375,-0.7851715087890625,-0.605804443359375
4.54,-0.05812748521566391,-0.007506385911256075,0.02394767664372921,-0.0817718505859375,-0.7807769775390625,-0.5997314453125
4.56,-0.0627848207950592,-0.003603257006034255,0.03441869467496872,-0.0780487060546875,-0.7786102294921875,-0.6024627685546875
4.58,-0.03634921833872795,-0.011276090517640114,0.02604571543633938,-0.08233642578125,-0.7793731689453125,-0.616851806640625
4.6,-0.010636931285262108,-0.002013349672779441,0.024649687111377716,-0.08917236328125,-0.7806396484375,-0.626739501953125
4.62,0.00875168014317751,0.009101885370910168,0.01884612627327442,-0.089202880859375,-0.7816162109375,-0.6337432861328125
4.64,0.006160690449178219,-0.0040916805155575275,0.02010553516447544,-0.092315673828125,-0.7771759033203125,-0.6277008056640625
4.66,-0.01667245291173458,-0.015845276415348053,0.025555161759257317,-0.0889434814453125,-0.777740478515625,-0.6152801513671875
4.68,-0.044870536774396896,-0.017644507810473442,0.027832429856061935,-0.0855712890625,-0.7778778076171875,-0.6070556640625
4.7,-0.03275049105286598,0.0054845139384269714,0.025614816695451736,-0.089599609375,-0.7807769775390625,-0.609466552734375
4.72,-0.004190484061837196,0.01672784797847271,0.007852597162127495,-0.0947113037109375,-0.782958984375,-0.624114990234375
4.74,0.007478955201804638,0.004750812891870737,0.00034594463068060577,-0.0973358154296875,-0.7845306396484375,-0.630035400390625
4.76,-0.012980513274669647,-0.0071157002821564674,0.009290170855820179,-0.09356689453125,-0.780426025390625,-0.6182403564453125
4.78,-0.03862542286515236,-0.005468801129609346,0.020907146856188774,-0.0850067138671875,-0.775909423828125,-0.6080322265625
4.8,-0.05810804292559624,0.050698332488536835,0.014696122147142887,-0.0832977294921875,-0.774505615234375,-0.6097869873046875
4.82,-0.05317400395870209,0.035240545868873596,0.02592374198138714,-0.08807373046875,-0.781158447265625,-0.618377685546875
4.84,-0.028616996482014656,0.002581668319180608,-0.023145265877246857,-0.1024322509765625,-0.7800140380859375,-0.6217193603515625
4.86,-0.04689134284853935,-0.013511814177036285,-0.01617763750255108,-0.1081085205078125,-0.7831878662109375,-0.615814208984375
4.88,-0.07188697159290314,0.019394736737012863,0.010696319863200188,-0.0879058837890625,-0.7752685546875,-0.613555908203125
4.9,-0.05314817279577255,0.0215337872505188,0.021095165982842445,-0.0777587890625,-0.7687530517578125,-0.6224822998046875
4.92,-0.017829064279794693,0.003129480639472604,0.012826316058635712,-0.08447265625,-0.773406982421875,-0.6325225830078125
4.94,-0.0004953479510731995,-0.0035004590172320604,0.007444334216415882,-0.092193603515625,-0.77606201171875,-0.6360015869140625
4.96,-0.005144428461790085,0.007288006599992514,0.018561700358986855,-0.092742919921875,-0.7730255126953125,-0.63250732421875
4.98,-0.01992310769855976,0.001987517112866044,0.017497766762971878,-0.08935546875,-0.76849365234375,-0.625732421875
5,-0.01684103161096573,-0.0025752766523510218,0.010654241777956486,-0.0925140380859375,-0.773406982421875,-0.623321533203125
5.02,-0.013651629909873009,-0.0012463594321161509,-0.0011720572365447879,-0.0978851318359375,-0.7768707275390625,-0.6228179931640625
5.04,0.0057652113027870655,0.013185842894017696,-0.011606056243181229,-0.100677490234375,-0.7784423828125,-0.6289520263671875
5.06,0.022343387827277184,0.01926157809793949,-0.019580624997615814,-0.099822998046875,-0.775726318359375,-0.6360931396484375
5.08,0.022792663425207138,0.0278534684330225,-0.01708604209125042,-0.09698486328125,-0.7715606689453125,-0.6357574462890625
5.1,0.02040114626288414,0.018940668553113937,-0.012309662997722626,-0.092987060546875,-0.7724609375,-0.6292572021484375
5.12,0.01330089196562767,0.0020266654901206493,-0.015002917498350143,-0.0892791748046875,-0.7715911865234375,-0.624481201171875
5.14,0.001761148450896144,0.004295146092772484,0.0033832797780632973,-0.0876312255859375,-0.771942138671875,-0.6183624267578125
5.16,0.011946408078074455,0.007592139765620232,-0.003441869281232357,-0.0840606689453125,-0.7728729248046875,-0.6237945556640625
5.18,0.035346005111932755,-0.0013872405979782343,-0.016952086240053177,-0.08984375,-0.7737884521484375,-0.6293487548828125
5.2,0.04067232832312584,0.0015515576815232635,-0.02684466354548931,-0.0965423583984375,-0.7778778076171875,-0.6309967041015625
5.22,0.02695545181632042,0.013348029926419258,-0.020003534853458405,-0.0979461669921875,-0.7751922607421875,-0.627655029296875
5.24,0.020492758601903915,0.012582371011376381,-0.022775087505578995,-0.0902252197265625,-0.774505615234375,-0.62042236328125
5.26,0.02417990379035473,0.009693373925983906,-0.02653280831873417,-0.088958740234375,-0.779449462890625,-0.6173553466796875
5.28,0.01064998097717762,0.0028242822736501694,-0.007859786972403526,-0.083709716796875,-0.7776031494140625,-0.6180267333984375
5.3,-0.0027326694689691067,-0.0030927290208637714,0.008203068748116493,-0.076202392578125,-0.77374267578125,-0.612945556640625
5.32,0.0003400856803636998,-0.00726350536569953,0.007742607966065407,-0.0800628662109375,-0.7736358642578125,-0.6171417236328125
5.34,0.022656310349702835,-0.0000428768944402691,-0.0007850998663343489,-0.0890045166015625,-0.77313232421875,-0.6249237060546875
5.36,0.037643250077962875,0.016441823914647102,-0.015297995880246162,-0.0932769775390625,-0.7774810791015625,-0.6332855224609375
5.38,0.04306517913937569,0.013593040406703949,-0.02480122074484825,-0.0950164794921875,-0.780242919921875,-0.619049072265625
5.4,0.031009314581751823,0.001627457677386701,-0.02460787445306778,-0.0950164794921875,-0.780242919921875,-0.619049072265625
5.42,0.007623564917594194,0.009316802956163883,-0.012538961134850979,-0.0892791748046875,-0.7804412841796875,-0.612152099609375
5.44,-0.006972421891987324,0.003200586885213852,-0.012051602825522423,-0.0836944580078125,-0.77447509765625,-0.6107940673828125
5.46,0.002749447477981448,0.01187902968376875,-0.021637383848428726,-0.086517333984375,-0.7763824462890625,-0.61614990234375
5.48,0.02935788780450821,0.02057398483157158,-0.021952969953417778,-0.0926513671875,-0.77935791015625,-0.628936767578125
5.5,0.030647391453385353,0.013834322802722454,-0.019932694733142853,-0.08758544921875,-0.7784881591796875,-0.6290740966796875
5.52,0.023133281618356705,0.0052118063904345036,-0.01077115535736084,-0.0838775634765625,-0.7761993408203125,-0.6221771240234375
5.54,0.016032762825489044,0.00782516598701477,-0.003325755475088954,-0.0813751220703125,-0.7743682861328125,-0.61651611328125
5.56,0.020954549312591553,0.0091745899990201,-0.0046549392864108086,-0.0864410400390625,-0.7790374755859375,-0.6195526123046875
5.58,0.021975073963403702,0.014955779537558556,-0.008490956388413906,-0.0864410400390625,-0.7790374755859375,-0.6195526123046875
5.6,0.025524267926812172,0.022968698292970657,-0.015682822093367577,-0.0897064208984375,-0.782318115234375,-0.6220855712890625
5.62,0.03719024360179901,0.03226233273744583,-0.020538564771413803,-0.09307861328125,-0.7808685302734375,-0.62445068359375
5.64,0.029208751395344734,0.02491227351129055,-0.017642376944422722,-0.0868377685546875,-0.7807159423828125,-0.62005615234375
5.66,0.011714180000126362,0.016279637813568115,-0.009574596770107746,-0.0829315185546875,-0.780487060546875,-0.6105194091796875
5.68,-0.003750795964151621,0.009318400174379349,-0.0032373385038226843,-0.077880859375,-0.7792205810546875,-0.60919189453125
5.7,0.0036330842413008213,0.013322729617357254,-0.005014998838305473,-0.0790252685546875,-0.7790985107421875,-0.610260009765625
5.72,0.024873923510313034,0.019950805231928825,-0.008508533239364624,-0.084197998046875,-0.783935546875,-0.6226806640625
5.74,0.022347649559378624,0.02292528934776783,-0.012529374100267887,-0.084197998046875,-0.783935546875,-0.6226806640625
5.76,0.024568991735577583,0.014038853347301483,-0.012109659612178802,-0.0854644775390625,-0.782958984375,-0.61895751953125
5.78,0.02136867120862007,0.008495217189192772,-0.020716464146971703,-0.0827484130859375,-0.7813873291015625,-0.613037109375
5.8,0.015114503912627697,0.011107778176665306,-0.021887721493840218,-0.0890045166015625,-0.783050537109375,-0.6157684326171875
5.82,0.007134608458727598,0.021999575197696686,-0.01806049235165119,-0.0848236083984375,-0.7810821533203125,-0.6127166748046875
5.84,0.00923264678567648,0.01980086974799633,-0.017842913046479225,-0.0806427001953125,-0.7842559814453125,-0.6142120361328125
5.86,0.026983680203557014,0.019636286422610283,-0.016523316502571106,-0.078887939453125,-0.7815399169921875,-0.615570068359375
5.88,0.053588658571243286,0.02720312587916851,-0.013017531484365463,-0.078643798828125,-0.784393310546875,-0.6190338134765625
5.9,0.04427319020032883,0.02255990356206894,-0.009243299253284931,-0.074127197265625,-0.7790069580078125,-0.6248321533203125
5.92,0.028210598975419998,0.01726926863193512,0.0033190976828336716,-0.074066162109375,-0.7830352783203125,-0.6132965087890625
5.94,0.01709616184234619,0.0065194182097911835,0.010971956886351109,-0.0691680908203125,-0.7809600830078125,-0.6060638427734375
5.96,0.011313906870782375,0.008567389100790024,0.012316054664552212,-0.073028564453125,-0.7822265625,-0.606658935546875
5.98,0.017703363671898842,-0.0070640346966683865,-0.0016932378057390451,-0.077056884765625,-0.78680419921875,-0.610809326171875
6,0.009788980707526207,-0.001894839107990265,-0.007122091483324766,-0.0850372314453125,-0.788330078125,-0.6081390380859375
6.02,-0.007185474969446659,0.007189203519374132,0.0033688987605273724,-0.083984375,-0.78753662109375,-0.6062469482421875
6.04,-0.00705737667158246,0.006042978726327419,0.007074421271681786,-0.078369140625,-0.7850341796875,-0.609222412109375
6.06,0.00026498452643863857,-0.0023704797495156527,0.003063966752961278,-0.0742034912109375,-0.7834625244140625,-0.6121673583984375
6.08,0.004349208436906338,-0.014088921248912811,0.0016871124971657991,-0.078460693359375,-0.7852783203125,-0.612213134765625
6.1,-0.0036796897184103727,-0.010390589013695717,0.00015100123709999025,-0.07696533203125,-0.78643798828125,-0.611236572265625
6.12,-0.009033442474901676,0.01369450706988573,0.0026173547375947237,-0.079986572265625,-0.7857818603515625,-0.6112518310546875
6.14,-0.006653375457972288,0.006685333326458931,0.001088433898985386,-0.0817108154296875,-0.7857513427734375,-0.6148223876953125
6.16,-0.008639028295874596,0.007849933579564095,-0.00512924836948514,-0.0831146240234375,-0.7854156494140625,-0.6120452880859375
6.18,-0.01458773110061884,0.0006708502769470215,0.0025720810517668724,-0.081298828125,-0.78729248046875,-0.6110992431640625
6.2,-0.010824684053659439,0.010481935925781727,-0.00034967303508892655,-0.077545166015625,-0.7828521728515625,-0.6121978759765625
6.22,-0.0017686053179204464,0.02708621136844158,-0.0032019184436649084,-0.0806427001953125,-0.7835235595703125,-0.6180877685546875
6.24,0.01774783805012703,0.028963740915060043,-0.014740862883627415,-0.0836029052734375,-0.786376953125,-0.6217193603515625
6.26,0.009178051725029945,0.02846146933734417,-0.010429738089442253,-0.08404541015625,-0.7850341796875,-0.6198272705078125
6.28,-0.01061908807605505,0.01501037459820509,-0.0032716933637857437,-0.076141357421875,-0.784912109375,-0.6085662841796875
6.3,-0.018273545429110527,0.0052200620993971825,0.002799248555675149,-0.0742340087890625,-0.7824554443359375,-0.6026763916015625
6.32,-0.010122941806912422,0.0013411679537966847,0.007156180217862129,-0.0738067626953125,-0.7831878662109375,-0.6086273193359375
6.34,-0.003885019337758422,0.009649164974689484,0.008962069638073444,-0.0749664306640625,-0.780548095703125,-0.6137237548828125
6.36,0.004285292699933052,0.01846476085484028,-0.000333161442540586,-0.07635498046875,-0.7843780517578125,-0.6178436279296875
6.38,0.019343603402376175,0.023933295160531998,-0.01116370502859354,-0.0847625732421875,-0.78570556640625,-0.6224517822265625
6.4,0.01600959338247776,0.01948555000126362,-0.012779977172613144,-0.08111572265625,-0.78741455078125,-0.61773681640625
6.42,-0.0000021305288555595325,0.015186675824224949,-0.007502124644815922,-0.0776519775390625,-0.7833404541015625,-0.61065673828125
6.44,-0.015902267768979073,0.011288341134786606,-0.0015081481542438269,-0.0723876953125,-0.7850494384765625,-0.6033172607421875
6.46,-0.010977549478411674,0.019294602796435356,-0.0023374564480036497,-0.0755767822265625,-0.7821197509765625,-0.608062744140625
6.48,0.00510021997615695,0.025828134268522263,-0.0039017973467707634,-0.078277587890625,-0.7854461669921875,-0.617706298828125
6.5,0.010028399527072906,0.015731025487184525,-0.007995075546205044,-0.0762481689453125,-0.78436279296875,-0.617950439453125
6.52,0.004081294406205416,0.007134874816983938,-0.011748002842068672,-0.07916259765625,-0.7850189208984375,-0.61273193359375
6.54,-0.0011113371001556516,0.004715925548225641,-0.011116567067801952,-0.079925537109375,-0.78289794921875,-0.6099090576171875
6.56,0.0025007082149386406,-0.002624545246362686,-0.006454437039792538,-0.07513427734375,-0.783966064453125,-0.611114501953125
6.58,0.005086903925985098,0.0031196267809718847,-0.005932457745075226,-0.07586669921875,-0.7841644287109375,-0.6138458251953125
6.6,0.007978830486536026,-0.001654355670325458,-0.0020000338554382324,-0.075164794921875,-0.7818603515625,-0.6157684326171875
6.62,0.005357747431844473,-0.018000837415456772,-0.0018383801216259599,-0.073974609375,-0.7813262939453125,-0.6157073974609375
6.64,-0.005376123357564211,-0.01275787316262722,0.007496532052755356,-0.0707550048828125,-0.7830047607421875,-0.60888671875
6.66,-0.004421113524585962,-0.009077117778360844,0.014345116913318634,-0.0716094970703125,-0.784698486328125,-0.6114959716796875
6.68,0.006250971462577581,-0.015225292183458805,0.009291502647101879,-0.073486328125,-0.781707763671875,-0.614532470703125
6.7,0.003861849894747138,-0.01702239364385605,0.00126739835832268,-0.0765380859375,-0.785614013671875,-0.6150054931640625
6.72,0.0079173119738698,-0.00016165387933142483,0.003662645351141691,-0.084869384765625,-0.787078857421875,-0.6126556396484375
6.74,0.0009488842915743589,-0.0004830974212381989,0.0026940538082271814,-0.077301025390625,-0.784576416015625,-0.6135406494140625
6.76,-0.012486763298511505,-0.012928049080073833,0.0012897689593955874,-0.076141357421875,-0.7860107421875,-0.60882568359375
6.78,-0.013138971291482449,0.004285292699933052,0.0027443873696029186,-0.0767974853515625,-0.7875518798828125,-0.60760498046875
6.8,-0.00011398329661460593,0.024507207795977592,0.002694586291909218,-0.0765380859375,-0.7848968505859375,-0.6177215576171875
6.82,0.0070762853138148785,0.013419668190181255,0.001088966615498066,-0.079803466796875,-0.7831573486328125,-0.6211395263671875
6.84,0.00008096009696600959,-0.005261074751615524,0.0019049590919166803,-0.0757293701171875,-0.7844085693359375,-0.6112213134765625
6.86,-0.028542695567011833,-0.010546384379267693,0.006418218370527029,-0.074310302734375,-0.7842559814453125,-0.6050872802734375
6.88,-0.020424315705895424,0.009622533805668354,0.005060005933046341,-0.07781982421875,-0.7826995849609375,-0.6065216064453125
6.9,0.007258978206664324,0.01722026616334915,-0.0014745922526344657,-0.0829315185546875,-0.7846221923828125,-0.6211090087890625
6.92,0.026430541649460793,0.006731938570737839,-0.0070528495125472546,-0.0831146240234375,-0.7820587158203125,-0.6276092529296875
6.94,0.02363928221166134,-0.00953757856041193,-0.007411577273160219,-0.07989501953125,-0.7849578857421875,-0.621734619140625
6.96,0.01435363944619894,0.006226204335689545,-0.010550112463533878,-0.07769775390625,-0.78424072265625,-0.6154022216796875
6.98,0.016594955697655678,0.040288567543029785,-0.012858274392783642,-0.083038330078125,-0.7837677001953125,-0.61724853515625
7,0.031022896990180016,0.03622777760028839,-0.027824174612760544,-0.0867462158203125,-0.785247802734375,-0.6212005615234375
7.02,0.027574902400374413,0.009702960960566998,-0.03417341783642769,-0.08270263671875,-0.7872772216796875,-0.6132354736328125
7.04,-0.008389489725232124,-0.004095409065485001,-0.005721002817153931,-0.06683349609375,-0.7892608642578125,-0.5991973876953125
7.06,-0.03935645893216133,0.003884752979502082,0.025006815791130066,-0.057708740234375,-0.7805023193359375,-0.593902587890625
7.08,-0.02768888510763645,-0.003459712490439415,0.03104180470108986,-0.059234619140625,-0.776702880859375,-0.6039886474609375
7.1,0.00245117349550128,0.0038072550669312477,0.017189905047416687,-0.0826416015625,-0.787628173828125,-0.6283721923828125
7.12,0.030648989602923393,0.025432655587792397,0.0007736482657492161,-0.0826416015625,-0.787628173828125,-0.6283721923828125
7.14,0.030304642394185066,0.022479476407170296,-0.011195396073162556,-0.083343505859375,-0.7896881103515625,-0.6267852783203125
7.16,0.00794234499335289,0.010206298902630806,-0.0162399560213089,-0.0836181640625,-0.7899017333984375,-0.6104583740234375
7.18,-0.026493659242987633,0.014386928640305996,-0.009379386901855469,-0.079559326171875,-0.7857818603515625,-0.5972900390625
7.2,-0.029714219272136688,0.016753679141402245,-0.007998271845281124,-0.076019287109375,-0.7846527099609375,-0.6024322509765625
7.22,-0.002743322169408202,0.009269931353628635,-0.01655101403594017,-0.076141357421875,-0.7856597900390625,-0.621673583984375
7.24,0.01073653344064951,0.02502785436809063,-0.014726481400430202,-0.076141357421875,-0.7856597900390625,-0.621673583984375
7.26,0.02155056595802307,0.02527286671102047,-0.0034405377227813005,-0.072723388671875,-0.782928466796875,-0.6248626708984375
7.28,0.017295099794864655,0.014553376473486423,-0.0030104373581707478,-0.0710296630859375,-0.7800445556640625,-0.6188812255859375
7.3,0.00481313094496727,0.0166157279163599,-0.0007938882918097079,-0.071624755859375,-0.783538818359375,-0.610870361328125
7.32,0.008057394064962864,0.01587643474340439,-0.002557699801400304,-0.071380615234375,-0.7875518798828125,-0.6089324951171875
7.34,0.0005147890187799931,0.0016972325975075364,0.0009243832319043577,-0.0717620849609375,-0.7861175537109375,-0.6101531982421875
7.36,-0.008327704854309559,0.011389008723199368,0.0023196132387965918,-0.0749969482421875,-0.782928466796875,-0.6085968017578125
7.38,-0.0028605014085769653,0.012917396612465382,-0.001547030289657414,-0.07421875,-0.785064697265625,-0.615142822265625
7.4,0.003620833856984973,0.01690840907394886,-0.005554821342229843,-0.07421875,-0.785064697265625,-0.615142822265625
7.42,0.005916478578001261,0.01480690948665142,-0.008669122122228146,-0.0742034912109375,-0.7852783203125,-0.61407470703125
7.44,0.004579572007060051,0.005828594323247671,-0.00043995422311127186,-0.071746826171875,-0.7882232666015625,-0.60968017578125
7.46,-0.018507637083530426,-0.01667245291173458,0.011594604700803757,-0.0645294189453125,-0.785186767578125,-0.6058349609375
7.48,-0.03600087761878967,-0.012538694776594639,0.029348567128181458,-0.0637359619140625,-0.779815673828125,-0.6018218994140625
7.5,-0.028961343690752983,-0.010641193017363548,0.034267693758010864,-0.0653076171875,-0.779144287109375,-0.6096954345703125
7.52,-0.0030391993932425976,-0.002409095410257578,0.01677738130092621,-0.0747528076171875,-0.7813262939453125,-0.620208740234375
7.54,0.019150791689753532,0.007644603960216045,-0.008917328901588917,-0.0853424072265625,-0.7890472412109375,-0.627716064453125
7.56,0.01685488037765026,0.015540343709290028,-0.025543177500367165,-0.091400146484375,-0.789093017578125,-0.622955322265625
7.58,-0.005899434443563223,0.016563531011343002,-0.03429245948791504,-0.0865020751953125,-0.7929840087890625,-0.6120758056640625
7.6,-0.02887558937072754,0.015260712243616581,-0.02923964522778988,-0.0788116455078125,-0.7885284423828125,-0.601806640625
7.62,-0.03621499612927437,0.007101318798959255,-0.021089572459459305,-0.0691986083984375,-0.78509521484375,-0.60345458984375
7.64,-0.016929714009165764,0.00869388971477747,-0.00842863880097866,-0.0683746337890625,-0.7812347412109375,-0.61224365234375
7.66,-0.007503989152610302,0.008069911040365696,0.0013510215794667602,-0.064788818359375,-0.778717041015625,-0.6212921142578125
7.68,0.00013129384024068713,0.01444179005920887,0.009029713459312916,-0.0630340576171875,-0.780364990234375,-0.62237548828125
7.7,-0.002576342085376382,0.007951932959258556,0.010676613077521324,-0.064697265625,-0.7811279296875,-0.6162109375
7.72,0.00024394555657636374,-0.0043806335888803005,0.015575497411191463,-0.0675201416015625,-0.7858123779296875,-0.612030029296875
7.74,-0.026568228378891945,-0.015223427675664425,0.024513598531484604,-0.0702972412109375,-0.78204345703125,-0.6089630126953125
7.76,-0.04994092881679535,-0.005138036794960499,0.03400590270757675,-0.0718994140625,-0.780181884765625,-0.603302001953125
7.78,-0.04116155207157135,-0.006135390605777502,0.022159097716212273,-0.075103759765625,-0.7816162109375,-0.6097564697265625
7.8,-0.015529957599937916,-0.009552226401865482,0.015141935087740421,-0.078125,-0.78497314453125,-0.6181488037109375
7.82,-0.016379239037632942,-0.009134376421570778,0.023152723908424377,-0.0746002197265625,-0.78564453125,-0.6229095458984375
7.84,-0.025657160207629204,-0.009459547698497772,0.028620459139347076,-0.0704498291015625,-0.7786407470703125,-0.6190185546875
7.86,-0.020085560157895088,-0.0192533228546381,0.029865486547350883,-0.0741729736328125,-0.7762603759765625,-0.6167144775390625
7.88,-0.006421680096536875,-0.026805780827999115,0.031086014583706856,-0.0779876708984375,-0.779022216796875,-0.6210479736328125
7.9,0.0012434299569576979,-0.022363362833857536,0.028382904827594757,-0.07769775390625,-0.780914306640625,-0.6259307861328125
7.92,0.009012669324874878,-0.002828543307259679,0.01122256089001894,-0.0866241455078125,-0.7792510986328125,-0.62750244140625
7.94,0.020899688825011253,0.03184341639280319,-0.007738080807030201,-0.0952606201171875,-0.78228759765625,-0.6310882568359375
7.96,0.03917456790804863,0.047325968742370605,-0.025259817019104958,-0.0926055908203125,-0.78607177734375,-0.6302032470703125
7.98,0.026862241327762604,0.024877386167645454,-0.030892934650182724,-0.0806884765625,-0.79266357421875,-0.617889404296875
8,-0.019045330584049225,0.012369584292173386,-0.012020177207887173,-0.0726776123046875,-0.786590576171875,-0.601226806640625
8.02,-0.058222293853759766,0.017053285613656044,0.01824238710105419,-0.0658416748046875,-0.77545166015625,-0.5952301025390625
8.04,-0.04619572311639786,0.013558419421315193,0.02467365376651287,-0.066741943359375,-0.7731170654296875,-0.6041717529296875
8.06,-0.01582610048353672,0.005402488633990288,0.019785422831773758,-0.07037353515625,-0.778533935546875,-0.6218414306640625
8.08,0.0028538433834910393,0.02611229382455349,0.01992763578891754,-0.07464599609375,-0.7814483642578125,-0.630035400390625
8.1,0.013726730830967426,0.04616829380393028,0.01926397532224655,-0.076629638671875,-0.7783660888671875,-0.6331939697265625
8.12,0.020532172173261642,0.034635741263628006,0.012619122862815857,-0.077789306640625,-0.7793731689453125,-0.6279144287109375
8.14,0.00944996066391468,0.024462731555104256,0.001142229768447578,-0.081451416015625,-0.781585693359375,-0.6190948486328125
8.16,-0.012624715454876423,0.020987840369343758,-0.0020668793004006147,-0.0805511474609375,-0.7811279296875,-0.6067047119140625
8.18,-0.02863164432346821,0.01489506009966135,0.0001257012045243755,-0.0805511474609375,-0.7811279296875,-0.6067047119140625
8.2,-0.016109194606542587,0.009784187190234661,-0.0025012409314513206,-0.0775146484375,-0.7811737060546875,-0.6126556396484375
8.22,-0.006262689363211393,0.004217382054775953,-0.0009914948605000973,-0.0755157470703125,-0.7779388427734375,-0.6223907470703125
8.24,-0.006102633662521839,0.0028538433834910393,0.0034730283077806234,-0.0751953125,-0.77764892578125,-0.6232452392578125
8.26,0.00035499935620464385,-0.00980469398200512,0.0200370904058218,-0.0707550048828125,-0.776458740234375,-0.621307373046875
8.28,-0.0020088222809135914,-0.021313278004527092,0.022301843389868736,-0.0667877197265625,-0.7745513916015625,-0.6189727783203125
8.3,0.0025278725661337376,-0.030763238668441772,0.022308500483632088,-0.0698089599609375,-0.77740478515625,-0.6202392578125
8.32,-0.001440237509086728,-0.025559421628713608,0.02371491678059101,-0.0725860595703125,-0.7778167724609375,-0.62005615234375
8.34,0.01703331246972084,-0.02256682887673378,0.008799617178738117,-0.0931243896484375,-0.78326416015625,-0.6278076171875
8.36,0.02538418583571911,-0.025182317942380905,-0.02846439741551876,-0.0931243896484375,-0.78326416015625,-0.6278076171875
8.38,0.020126307383179665,-0.024772191420197487,-0.029280923306941986,-0.096893310546875,-0.78680419921875,-0.6223907470703125
8.4,0.00398648576810956,-0.013333648443222046,-0.02738475240767002,-0.0865631103515625,-0.7830047607421875,-0.6183929443359375
8.42,-0.012522716075181961,-0.019288742914795876,-0.01540665328502655,-0.07586669921875,-0.7776336669921875,-0.612152099609375
8.44,-0.016143282875418663,-0.02648433856666088,-0.002974218223243952,-0.070953369140625,-0.7790679931640625,-0.610015869140625
8.46,-0.012278503738343716,-0.025840917602181435,0.01534513384103775,-0.064971923828125,-0.7778778076171875,-0.61260986328125
8.48,-0.0107708889991045,-0.011139203794300556,0.03399232029914856,-0.0635223388671875,-0.7754058837890625,-0.61798095703125
8.5,0.000494016392622143,-0.006074137985706329,0.04332856461405754,-0.065521240234375,-0.77587890625,-0.62200927734375
8.52,0.0013611416798084974,0.0009890979854390025,0.03749730810523033,-0.07568359375,-0.7763671875,-0.623443603515625
8.54,0.0058656120672822,0.03134620562195778,0.018663698807358742,-0.0877838134765625,-0.7815093994140625,-0.623626708984375
8.56,0.006994792725890875,0.03720435872673988,-0.005596633069217205,-0.09527587890625,-0.784576416015625,-0.6257781982421875
8.58,-0.006416620220988989,0.04863331466913223,-0.024348748847842216,-0.0990142822265625,-0.7890625,-0.619964599609375
8.6,-0.025837190449237823,0.045875612646341324,-0.02202673815190792,-0.0918731689453125,-0.7853546142578125,-0.6132965087890625
8.62,-0.03249615803360939,0.028387432917952538,-0.022650184109807014,-0.0823822021484375,-0.7805938720703125,-0.6089935302734375
8.64,-0.02756744623184204,0.04321165382862091,-0.016215188428759575,-0.0786285400390625,-0.7809295654296875,-0.612152099609375
8.66,-0.004495415836572647,0.05934561416506767,-0.013185842894017696,-0.0780181884765625,-0.7762451171875,-0.63079833984375
8.68,0.020196881145238876,0.05964149162173271,-0.019397400319576263,-0.0786590576171875,-0.773681640625,-0.637420654296875
8.7,0.03899214044213295,0.025233184918761253,-0.018794726580381393,-0.07733154296875,-0.778778076171875,-0.633209228515625
8.72,0.019450396299362183,0.016644224524497986,-0.007866178639233112,-0.0732574462890625,-0.7754669189453125,-0.624908447265625
8.74,0.0035185683518648148,0.022168951109051704,0.003014432033523917,-0.0711822509765625,-0.77337646484375,-0.61505126953125
8.76,0.01889672502875328,0.02273540571331978,-0.008200405165553093,-0.0756988525390625,-0.7740478515625,-0.621368408203125
8.78,0.053771886974573135,0.028916602954268456,-0.032890837639570236,-0.0856475830078125,-0.7806854248046875,-0.6317596435546875
8.8,0.07390325516462326,0.033485788851976395,-0.05264589935541153,-0.090576171875,-0.7843780517578125,-0.638458251953125
8.82,0.06485303491353989,0.038839805871248245,-0.06042579188942909,-0.0860137939453125,-0.7838897705078125,-0.629608154296875
8.84,0.0479467511177063,0.036074113100767136,-0.05829686298966408,-0.078460693359375,-0.7821044921875,-0.615570068359375
8.86,0.04574565216898918,0.05239929258823395,-0.0615571029484272,-0.07598876953125,-0.7840576171875,-0.61962890625
8.88,0.07851504534482956,0.07403694093227386,-0.06594918668270111,-0.07598876953125,-0.7840576171875,-0.61962890625
8.9,0.08533993363380432,0.06632256507873535,-0.07151519507169724,-0.0742340087890625,-0.7842254638671875,-0.624664306640625
8.92,0.05760044604539871,0.062132079154253006,-0.06604106724262238,-0.0656585693359375,-0.784912109375,-0.6159515380859375
8.94,0.023686153814196587,0.04879949614405632,-0.04003157094120979,-0.0543975830078125,-0.7898712158203125,-0.5989990234375
8.96,0.006686664652079344,0.04573792591691017,-0.022721556946635246,-0.0490875244140625,-0.780487060546875,-0.59442138671875
8.98,-0.006019542925059795,0.04908685386180878,-0.01085584331303835,-0.049163818359375,-0.7798614501953125,-0.5976715087890625
9,0.005967877805233002,0.04586868733167648,-0.012684902176260948,-0.0552215576171875,-0.785186767578125,-0.60675048828125
9.02,0.03947523608803749,-0.012973588891327381,0.006451773922890425,-0.052154541015625,-0.786651611328125,-0.611663818359375
9.04,-0.01684555970132351,0.03235527500510216,-0.0032408006954938173,-0.0481109619140625,-0.778289794921875,-0.6126251220703125
9.06,-0.03353026136755943,-0.0059724049642682076,0.026461701840162277,-0.0522613525390625,-0.791046142578125,-0.5953216552734375
9.08,-0.02430081181228161,-0.029104355722665787,0.026852918788790703,-0.045257568359375,-0.7790679931640625,-0.602203369140625
9.1,-0.03993995860219002,-0.030977357178926468,0.033841852098703384,-0.05352783203125,-0.778778076171875,-0.6068878173828125
9.12,-0.022057365626096725,-0.013379987329244614,0.022593192756175995,-0.0594329833984375,-0.788330078125,-0.612335205078125
9.14,0.0051654670387506485,-0.012629242613911629,-0.003078347770497203,-0.068389892578125,-0.79180908203125,-0.622711181640625
9.16,0.0016783240716904402,-0.007339139468967915,-0.003941478207707405,-0.07122802734375,-0.7915496826171875,-0.6201171875
9.18,-0.01618136651813984,-0.008987636305391788,0.001422128058038652,-0.062652587890625,-0.7913055419921875,-0.6129150390625
9.2,-0.038187332451343536,-0.022182799875736237,0.0073236930184066296,-0.059326171875,-0.7841796875,-0.6033935546875
9.22,-0.052502620965242386,-0.0364067442715168,0.013766146264970303,-0.05853271484375,-0.7835693359375,-0.6015472412109375
9.24,-0.054059505462646484,-0.028025776147842407,0.009603358805179596,-0.0609283447265625,-0.7832794189453125,-0.6084747314453125
9.26,-0.03074406459927559,-0.014754445292055607,0.0012748552253469825,-0.067626953125,-0.7829742431640625,-0.6190948486328125
9.28,0.001270061475224793,-0.01992364041507244,-0.015036473982036114,-0.07269287109375,-0.785003662109375,-0.6314697265625
9.3,-0.005696767941117287,-0.026767432689666748,-0.005902363918721676,-0.07183837890625,-0.7845611572265625,-0.6266326904296875
9.32,-0.033191509544849396,-0.032219454646110535,0.010491789318621159,-0.0619354248046875,-0.777313232421875,-0.6157684326171875
9.34,-0.04326651245355606,-0.04912067577242851,0.019782759249210358,-0.05670166015625,-0.7775421142578125,-0.6076202392578125
9.36,-0.03447169065475464,-0.04747191071510315,0.02430054545402527,-0.059722900390625,-0.7782135009765625,-0.612701416015625
9.38,-0.009831591509282589,-0.03708904609084129,0.03226206451654434,-0.0634002685546875,-0.77838134765625,-0.6259765625
9.4,0.02039635181427002,-0.02087811753153801,0.026460370048880577,-0.0669097900390625,-0.77947998046875,-0.632415771484375
9.42,0.023786023259162903,-0.024396685883402824,0.01997557282447815,-0.0712432861328125,-0.781341552734375,-0.631591796875
9.44,0.014330470003187656,-0.01840350776910782,0.016153668984770775,-0.0754241943359375,-0.7823028564453125,-0.6226654052734375
9.46,0.00024288028362207115,-0.023735422641038895,0.006286125164479017,-0.0738677978515625,-0.78369140625,-0.6144866943359375
9.48,-0.0019651465117931366,-0.021946843713521957,0.0023635553661733866,-0.0784454345703125,-0.7846221923828125,-0.6117401123046875
9.5,-0.015022092498838902,-0.010933607816696167,0.005561479367315769,-0.0731964111328125,-0.7839813232421875,-0.6129608154296875
9.52,-0.011335479095578194,0.0031318773981183767,0.006048571318387985,-0.071807861328125,-0.7847442626953125,-0.6142578125
9.54,0.006082660052925348,0.002740126335993409,0.004432565066963434,-0.070343017578125,-0.7833099365234375,-0.6205596923828125
9.56,0.006808104924857616,0.0006878945278003812,0.0009651295840740204,-0.071624755859375,-0.780975341796875,-0.624298095703125
9.58,0.0013017531018704176,0.008068312890827656,0.012658004648983479,-0.0705718994140625,-0.7796630859375,-0.6205291748046875
9.6,0.012414325028657913,0.010528541170060635,0.013068663887679577,-0.0699615478515625,-0.7802886962890625,-0.6179351806640625
9.62,0.01344736572355032,0.003034938359633088,0.007954329252243042,-0.0702667236328125,-0.7816925048828125,-0.6210174560546875
9.64,0.009121593087911606,0.01636192947626114,0.0019462381023913622,-0.0731048583984375,-0.7846527099609375,-0.6187286376953125
9.66,0.008437426760792732,0.027116039767861366,-0.012773585505783558,-0.0812530517578125,-0.7839508056640625,-0.6190338134765625
9.68,0.012566924095153809,0.021401695907115936,-0.03093740902841091,-0.08575439453125,-0.782501220703125,-0.6208343505859375
9.7,0.004316185135394335,0.032158203423023224,-0.02954857051372528,-0.0806732177734375,-0.7846527099609375,-0.6175384521484375
9.72,-0.008218248374760151,0.03224502131342888,-0.02449202723801136,-0.0699920654296875,-0.78485107421875,-0.613494873046875
9.74,-0.01152536179870367,0.03471909835934639,-0.009982593357563019,-0.0630950927734375,-0.7815093994140625,-0.6109161376953125
9.76,0.0031462584156543016,0.028432972729206085,0.004968126770108938,-0.057464599609375,-0.7813873291015625,-0.6141815185546875
9.78,-0.005847502965480089,0.01601598411798477,0.011611648835241795,-0.057220458984375,-0.7775421142578125,-0.61810302734375
9.8,-0.006103432737290859,0.01011095754802227,0.01537842396646738,-0.062774658203125,-0.779144287109375,-0.613983154296875
9.82,-0.0013920343481004238,0.01004997082054615,0.017893780022859573,-0.06890869140625,-0.778533935546875,-0.619537353515625
9.84,0.002427204977720976,0.01401941291987896,0.012857741676270962,-0.06890869140625,-0.778533935546875,-0.619537353515625
9.86,0.015442339703440666,0.021766282618045807,-0.0041337586008012295,-0.07659912109375,-0.785247802734375,-0.6230926513671875
9.88,0.024958346039056778,0.009523464366793633,-0.014974421821534634,-0.079132080078125,-0.7881927490234375,-0.62322998046875
9.9,0.00019121496006846428,0.003425091505050659,-0.008187889121472836,-0.073699951171875,-0.7839508056640625,-0.61578369140625
9.92,-0.029569078236818314,-0.00006817692337790504,0.003626426449045539,-0.0655059814453125,-0.78070068359375,-0.6040191650390625
9.94,-0.023517310619354248,-0.01098527293652296,-0.0033065807074308395,-0.064208984375,-0.7805633544921875,-0.6079559326171875
9.96,-0.0005262406193651259,-0.009037703275680542,-0.005736715160310268,-0.06903076171875,-0.7827301025390625,-0.6167449951171875
9.98,0.006779342889785767,-0.008772452361881733,-0.0037289580795913935,-0.0678863525390625,-0.7841339111328125,-0.625091552734375
10,0.00424374733120203,-0.006721286103129387,0.008842493407428265,-0.063720703125,-0.7838897705078125,-0.6204986572265625
10.02,-0.003275954397395253,-0.01877688430249691,0.014683605171740055,-0.0625762939453125,-0.77764892578125,-0.6169586181640625
10.04,-0.01176264975219965,-0.020604876801371574,0.020074907690286636,-0.0677032470703125,-0.776458740234375,-0.6175994873046875
10.06,-0.004177700728178024,-0.0003153182624373585,0.006856574676930904,-0.08074951171875,-0.7850799560546875,-0.6228790283203125
10.08,0.005594502668827772,0.013935523107647896,-0.016377108171582222,-0.08074951171875,-0.7850799560546875,-0.6228790283203125
10.1,0.017733989283442497,0.02479722537100315,-0.01950632408261299,-0.064971923828125,-0.78857421875,-0.61285400390625
10.12,-0.007443268783390522,-0.00603392394259572,0.007179349660873413,-0.064971923828125,-0.78857421875,-0.61285400390625
10.14,-0.049309227615594864,-0.025469141080975533,0.04543352872133255,-0.0471343994140625,-0.7782135009765625,-0.59674072265625
10.16,-0.05119554325938225,-0.0448223315179348,0.06282130628824234,-0.0450897216796875,-0.77227783203125,-0.59918212890625
10.18,0.0003206445835530758,-0.06437153369188309,0.0660402700304985,-0.0570068359375,-0.77215576171875,-0.6199951171875
10.2,0.0451512336730957,-0.051836565136909485,0.03573749214410782,-0.0773468017578125,-0.7773590087890625,-0.6458282470703125
10.22,0.0665702372789383,-0.035597674548625946,0.013069995678961277,-0.102783203125,-0.7748260498046875,-0.6521453857421875
10.24,0.06220744922757149,-0.017605625092983246,-0.006490123458206654,-0.105377197265625,-0.7764434814453125,-0.64239501953125
10.26,0.05390051752328873,-0.0014349111588671803,-0.02750859037041664,-0.0984954833984375,-0.785400390625,-0.6247100830078125
10.28,0.04687296599149704,0.005175320897251368,-0.036981187760829926,-0.0848846435546875,-0.7931365966796875,-0.61126708984375
10.3,0.01913747563958168,-0.0008444883860647678,-0.02546035312116146,-0.06988525390625,-0.7940216064453125,-0.60076904296875
10.32,-0.0054328483529388905,0.012660135515034199,-0.009251289069652557,-0.0624542236328125,-0.7884674072265625,-0.5924530029296875
10.34,-0.007382016163319349,0.025239309296011925,-0.002454102970659733,-0.061370849609375,-0.7820892333984375,-0.60211181640625
10.36,0.026789003983139992,0.03803233802318573,-0.009525860659778118,-0.070220947265625,-0.7837677001953125,-0.6195526123046875
10.38,0.050812046974897385,0.04764501750469208,-0.016263658180832863,-0.079986572265625,-0.7826690673828125,-0.633544921875
10.4,0.04567347839474678,0.06307271122932434,-0.018039453774690628,-0.0799560546875,-0.7804107666015625,-0.626800537109375
10.42,0.03814765065908432,0.0853002518415451,-0.02063843235373497,-0.076934814453125,-0.785614013671875,-0.6174774169921875
10.44,0.03125086426734924,0.06411879509687424,-0.02857465296983719,-0.0751953125,-0.7882080078125,-0.6083221435546875
10.46,0.014229536056518555,0.036671992391347885,-0.019952403381466866,-0.06768798828125,-0.7919158935546875,-0.6003570556640625
10.48,-0.017612814903259277,0.010270214639604092,-0.005673065781593323,-0.0586090087890625,-0.7864532470703125,-0.5972900390625
10.5,-0.018330270424485207,0.006030728109180927,0.0021441110875457525,-0.0626220703125,-0.77825927734375,-0.599029541015625
10.52,0.01594594307243824,0.009393768385052681,-0.006190251559019089,-0.0710601806640625,-0.7766876220703125,-0.6164398193359375
10.54,0.061285194009542465,0.029868949204683304,-0.02575409971177578,-0.0780029296875,-0.7843170166015625,-0.6351318359375
10.56,0.0814216211438179,0.045156028121709824,-0.02779940702021122,-0.07989501953125,-0.790374755859375,-0.6369171142578125
10.58,0.05338705703616142,0.03105512075126171,-0.02129596658051014,-0.068817138671875,-0.7879638671875,-0.6183929443359375
10.6,0.005635781679302454,0.011830826289951801,-0.005554554983973503,-0.05804443359375,-0.78826904296875,-0.591796875
10.62,-0.024562601000070572,-0.005689577199518681,-0.0014916365034878254,-0.0544281005859375,-0.787628173828125,-0.5821533203125
10.64,-0.015962189063429832,-0.014949122443795204,-0.0042706448584795,-0.059112548828125,-0.789459228515625,-0.5892486572265625
10.66,0.002011219272390008,-0.0034285534638911486,-0.004490888677537441,-0.0663909912109375,-0.7914886474609375,-0.60906982421875
10.68,0.017768077552318573,0.014000237919390202,-0.0002324939559912309,-0.067230224609375,-0.7869415283203125,-0.620147705078125
10.7,0.022710638120770454,0.006795587949454784,0.0041217743419110775,-0.06689453125,-0.784271240234375,-0.62127685546875
10.72,0.01944160833954811,-0.009245163761079311,-0.0015510249650105834,-0.0656890869140625,-0.784088134765625,-0.613311767578125
10.74,0.011078217066824436,0.0015246596885845065,-0.005675728898495436,-0.0655059814453125,-0.78851318359375,-0.6042633056640625
10.76,0.0062187472358345985,0.003418433479964733,-0.01287451945245266,-0.0656585693359375,-0.7931671142578125,-0.6055755615234375
10.78,-0.014610634185373783,-0.004461860284209251,-0.008537561632692814,-0.0703277587890625,-0.7906494140625,-0.6030731201171875
10.8,-0.03496304526925087,-0.006129798013716936,-0.0017132115317508578,-0.0653839111328125,-0.7900238037109375,-0.5980987548828125
10.82,-0.026870762929320335,0.002770752878859639,0.0010665960144251585,-0.0645294189453125,-0.7889251708984375,-0.6013641357421875
10.84,-0.015325959771871567,0.0031696942169219255,0.014814898371696472,-0.0622406005859375,-0.785430908203125,-0.611724853515625
10.86,-0.004554005339741707,0.00977460015565157,0.020352143794298172,-0.0560455322265625,-0.7882843017578125,-0.6157684326171875
10.88,-0.0011020160745829344,-0.005586512852460146,0.029163211584091187,-0.058135986328125,-0.78485107421875,-0.6167449951171875
10.9,-0.0005494101205840707,-0.013909423723816872,0.03221279755234718,-0.0622406005859375,-0.7835540771484375,-0.6122589111328125
10.92,-0.003239202778786421,-0.001782453735359013,0.023688284680247307,-0.067413330078125,-0.7856292724609375,-0.6116790771484375
10.94,0.006613161414861679,0.019177423790097237,0.009853961877524853,-0.07550048828125,-0.7887725830078125,-0.6143646240234375
10.96,0.011679026298224926,0.016999224200844765,-0.004280232358723879,-0.082366943359375,-0.7906951904296875,-0.6175537109375
10.98,0.00865953415632248,0.017476195469498634,-0.016692694276571274,-0.078887939453125,-0.7930908203125,-0.6133575439453125
11,-0.00008548746700398624,0.0062216767109930515,-0.012344550341367722,-0.0741729736328125,-0.792022705078125,-0.605560302734375
11.02,-0.01986025646328926,-0.0008530105114914477,0.010299509391188622,-0.0606231689453125,-0.787445068359375,-0.601898193359375
11.04,-0.03290868178009987,-0.002246376359835267,0.028688635677099228,-0.0558319091796875,-0.783447265625,-0.60540771484375
11.06,-0.02149171009659767,-0.005596899427473545,0.03080611489713192,-0.0558319091796875,-0.783447265625,-0.60540771484375
11.08,0.00580755528062582,-0.0028881982434540987,0.01944400556385517,-0.0649871826171875,-0.7881011962890625,-0.6162872314453125
11.1,0.019331619143486023,0.014639396220445633,0.013006879016757011,-0.0698089599609375,-0.787384033203125,-0.623931884765625
11.12,0.022456040605902672,0.02594265155494213,0.0009395632077939808,-0.0770416259765625,-0.789581298828125,-0.623321533203125
11.14,0.015507587231695652,0.01155652105808258,-0.0048890309408307076,-0.077301025390625,-0.7903594970703125,-0.6137847900390625
11.16,-0.012879845686256886,0.005548696033656597,-0.006738862954080105,-0.07550048828125,-0.789764404296875,-0.6017303466796875
11.18,-0.03111264482140541,0.0054453653283417225,-0.007643804885447025,-0.0731658935546875,-0.7876434326171875,-0.59674072265625
11.2,-0.03057175688445568,0.0037787591572850943,-0.0033537186682224274,-0.06842041015625,-0.78887939453125,-0.602203369140625
11.22,-0.025900039821863174,0.013035374693572521,0.011382617056369781,-0.0625152587890625,-0.786712646484375,-0.6109771728515625
11.24,-0.010565558448433876,0.007926899008452892,0.019306320697069168,-0.0601348876953125,-0.782745361328125,-0.615234375
11.26,0.007732221856713295,0.008798551745712757,0.010289122350513935,-0.0588226318359375,-0.78277587890625,-0.6212310791015625
11.28,0.010047041811048985,0.012612731195986271,0.015842612832784653,-0.0709075927734375,-0.7861785888671875,-0.6190338134765625
11.3,-0.0041161817498505116,0.013657755218446255,0.016826117411255836,-0.0675506591796875,-0.7849884033203125,-0.6146240234375
11.32,-0.018997393548488617,0.009711483493447304,0.012085957452654839,-0.071533203125,-0.785888671875,-0.6066131591796875
11.34,-0.021944446489214897,0.0016982977977022529,0.014571752399206161,-0.070343017578125,-0.788360595703125,-0.6064453125
11.36,-0.026155438274145126,-0.0032415995374321938,0.009945308789610863,-0.0702667236328125,-0.785430908203125,-0.60565185546875
11.38,-0.02931208163499832,-0.002002430846914649,0.010579939931631088,-0.069610595703125,-0.785552978515625,-0.609344482421875
11.4,-0.015474563464522362,0.008950085379183292,0.012108860537409782,-0.0709075927734375,-0.7852783203125,-0.615081787109375
11.42,-0.0015219965716823936,0.009548231028020382,0.011803129687905312,-0.073150634765625,-0.78375244140625,-0.621490478515625
11.44,0.00646695401519537,0.01461915671825409,0.0068144965916872025,-0.072418212890625,-0.78466796875,-0.6213226318359375
11.46,-0.0018341189716011286,0.008884305134415627,0.009814547374844551,-0.07135009765625,-0.78619384765625,-0.616546630859375
11.48,-0.01374910119920969,0.0021963089238852262,0.026851320639252663,-0.0675201416015625,-0.7834625244140625,-0.6082611083984375
11.5,-0.03158402442932129,-0.012314190156757832,0.02479482814669609,-0.0604095458984375,-0.783203125,-0.6036834716796875
11.52,-0.03712659701704979,-0.010233729146420956,0.020490095019340515,-0.067474365234375,-0.78424072265625,-0.60595703125
11.54,-0.026609506458044052,0.005913282744586468,0.014484134502708912,-0.0753936767578125,-0.7850799560546875,-0.612152099609375
11.56,-0.004008856136351824,-0.0011717908782884479,0.008429703302681446,-0.0758514404296875,-0.78509521484375,-0.6210174560546875
11.58,0.0016532903537154198,-0.009754093363881111,0.008183094672858715,-0.0724945068359375,-0.7836761474609375,-0.6158905029296875
11.6,-0.018669825047254562,-0.024541296064853668,0.01218635868281126,-0.0724945068359375,-0.7836761474609375,-0.6158905029296875
11.62,-0.03700835257768631,-0.026864103972911835,0.0100800646468997,-0.0741729736328125,-0.779266357421875,-0.610504150390625
11.64,-0.01179061271250248,-0.01366281509399414,-0.003944674041122198,-0.082061767578125,-0.77825927734375,-0.618408203125
11.66,0.017850102856755257,0.018563831225037575,-0.014904380775988102,-0.0843048095703125,-0.7849578857421875,-0.6302032470703125
11.68,0.026864370331168175,0.032405342906713486,-0.011083277873694897,-0.075347900390625,-0.787689208984375,-0.6307220458984375
11.7,0.007706655655056238,0.012397813610732555,0.0014884406700730324,-0.0647125244140625,-0.78814697265625,-0.6162109375
11.72,-0.02509975992143154,-0.02088850364089012,0.023141006007790565,-0.05902099609375,-0.7823486328125,-0.600250244140625
11.74,-0.05185707286000252,-0.035114578902721405,0.046170156449079514,-0.0569915771484375,-0.7753753662109375,-0.5947113037109375
11.76,-0.049792591482400894,-0.005721535068005323,0.04652488976716995,-0.0638580322265625,-0.7741241455078125,-0.6058502197265625
11.78,-0.005620335228741169,0.012131230905652046,0.02166374959051609,-0.0803070068359375,-0.781280517578125,-0.630340576171875
11.8,0.031627967953681946,0.0205761156976223,-0.008616125211119652,-0.091583251953125,-0.785919189453125,-0.6411895751953125
11.82,0.02743482030928135,0.024350613355636597,-0.014913169667124748,-0.090301513671875,-0.789093017578125,-0.63336181640625
11.84,-0.00863050576299429,0.013411412946879864,-0.014042848721146584,-0.0802459716796875,-0.783966064453125,-0.6158294677734375
11.86,-0.02955656126141548,0.0046661244705319405,-0.014436996541917324,-0.07623291015625,-0.780517578125,-0.60296630859375
11.88,-0.018384067341685295,0.009131979197263718,-0.015416506677865982,-0.0760040283203125,-0.7848358154296875,-0.608734130859375
11.9,0.005624862387776375,0.014399711973965168,-0.014622352086007595,-0.07568359375,-0.781707763671875,-0.6222686767578125
11.92,0.018127338960766792,0.0021252024453133345,-0.015519837848842144,-0.075714111328125,-0.7789306640625,-0.6295013427734375
11.94,0.025711754336953163,0.017355021089315414,-0.004861867055296898,-0.07440185546875,-0.778106689453125,-0.6268157958984375
11.96,0.027762388810515404,0.027589816600084305,0.0035326832439750433,-0.06689453125,-0.777801513671875,-0.625762939453125
11.98,0.0363960899412632,0.017704961821436882,-0.0035689021460711956,-0.0691375732421875,-0.778900146484375,-0.6219024658203125
12,0.027965055778622627,0.00515801040455699,-0.007940747775137424,-0.072052001953125,-0.78265380859375,-0.614990234375
12.02,0.01190992258489132,0.004757470916956663,-0.0144108971580863,-0.0747833251953125,-0.7855224609375,-0.6076507568359375
12.04,0.00833649281412363,0.015794942155480385,-0.018555840477347374,-0.07940673828125,-0.786865234375,-0.6109619140625
12.06,0.012483567930758,0.02088131383061409,-0.02220730111002922,-0.0778045654296875,-0.784210205078125,-0.6169891357421875
12.08,0.021891184151172638,0.019943879917263985,-0.031314779072999954,-0.075592041015625,-0.7825775146484375,-0.61956787109375
12.1,0.04000414162874222,0.02245231159031391,-0.04020361229777336,-0.0759429931640625,-0.78546142578125,-0.6203155517578125
12.12,0.04265904799103737,0.013619139790534973,-0.025441976264119148,-0.0699310302734375,-0.786102294921875,-0.619903564453125
12.14,0.014912370592355728,0.010617224499583244,-0.003022954100742936,-0.06048583984375,-0.782440185546875,-0.6096038818359375
12.16,-0.00449914438650012,-0.003293264890089631,0.012191152200102806,-0.0545501708984375,-0.7787322998046875,-0.604827880859375
12.18,0.00395639194175601,-0.004435494542121887,0.0007590008899569511,-0.0615997314453125,-0.7806854248046875,-0.606353759765625
12.2,0.0329747274518013,0.014644722454249859,-0.006195311434566975,-0.072662353515625,-0.78619384765625,-0.61932373046875
12.22,0.04686763882637024,0.04242894798517227,-0.015837019309401512,-0.076202392578125,-0.7882537841796875,-0.62872314453125
12.24,0.043290749192237854,0.03123328648507595,-0.018920959904789925,-0.075836181640625,-0.7874908447265625,-0.62176513671875
12.26,0.024345552548766136,-0.003165965899825096,-0.011788482777774334,-0.065460205078125,-0.785125732421875,-0.6090087890625
12.28,0.004860268905758858,0.007035272661596537,-0.005339371506124735,-0.06195068359375,-0.7851715087890625,-0.5995025634765625
12.3,0.023456856608390808,0.03839319571852684,-0.0103181516751647,-0.0670013427734375,-0.78631591796875,-0.6108551025390625
12.32,0.059248942881822586,0.043718717992305756,-0.031977906823158264,-0.07501220703125,-0.7881011962890625,-0.625274658203125
12.34,0.05772561579942703,0.035228028893470764,-0.04956648871302605,-0.0768890380859375,-0.7919464111328125,-0.624481201171875
12.36,0.03645308315753937,0.025716815143823624,-0.03618863224983215,-0.0717620849609375,-0.793426513671875,-0.6090087890625
12.38,0.020619258284568787,0.034347053617239,-0.023905599489808083,-0.061431884765625,-0.7856597900390625,-0.599945068359375
12.4,0.02364141307771206,0.026022545993328094,-0.01636645570397377,-0.05902099609375,-0.785247802734375,-0.6034393310546875
12.42,0.06144924461841583,0.06794150173664093,-0.01053599826991558,-0.0624237060546875,-0.786773681640625,-0.6138763427734375
12.44,0.09268706291913986,0.12645408511161804,-0.0362943597137928,-0.0646820068359375,-0.7878875732421875,-0.63720703125
12.46,0.15860295295715332,0.1338645964860916,-0.0389479324221611,-0.0814971923828125,-0.79266357421875,-0.6430206298828125
12.48,0.14542937278747559,0.1120208129286766,-0.031917717307806015,-0.08209228515625,-0.783203125,-0.644378662109375
12.5,0.01252058520913124,0.25730210542678833,-0.041064877063035965,-0.09271240234375,-0.76300048828125,-0.648956298828125
12.52,-0.07009120285511017,0.33818790316581726,-0.14279310405254364,-0.12518310546875,-0.75958251953125,-0.6687774658203125
12.54,-0.02568858489394188,0.39213183522224426,-0.2101290076971054,-0.1827850341796875,-0.7607879638671875,-0.7086334228515625
12.56,0.040947698056697845,0.4743153750896454,-0.18601301312446594,-0.176971435546875,-0.7129974365234375,-0.760772705078125
12.58,0.12351474910974503,0.576592743396759,-0.05934827774763107,-0.092926025390625,-0.7171478271484375,-0.780975341796875
12.6,0.20880354940891266,0.5383681058883667,0.0606716014444828,-0.013275146484375,-0.72149658203125,-0.7599639892578125
12.62,0.2956012785434723,0.45741361379623413,0.08931310474872589,-0.0269317626953125,-0.719940185546875,-0.715179443359375
12.64,0.39222291111946106,0.35284727811813354,0.043179430067539215,-0.0711212158203125,-0.7513885498046875,-0.6813201904296875
12.66,0.4005351662635803,0.24586595594882965,0.009514941833913326,-0.089935302734375,-0.7648162841796875,-0.6369781494140625
12.68,0.33374255895614624,0.22664566338062286,0.04105529189109802,-0.0807647705078125,-0.7738189697265625,-0.587615966796875
12.7,0.3052475154399872,0.19312258064746857,0.10190479457378387,-0.064056396484375,-0.781524658203125,-0.546661376953125
12.72,0.39065325260162354,0.1247299462556839,0.16054493188858032,-0.05670166015625,-0.7688751220703125,-0.525054931640625
12.74,0.4609833359718323,0.01637045107781887,0.22854982316493988,-0.0374298095703125,-0.757598876953125,-0.516265869140625
12.76,0.3262034058570862,-0.09856811910867691,0.26966848969459534,-0.001861572265625,-0.78961181640625,-0.45233154296875
12.78,0.1607223004102707,-0.06870875507593155,0.3162354528903961,-0.001861572265625,-0.78961181640625,-0.45233154296875
12.8,0.10775735229253769,-0.10638369619846344,0.3856925666332245,-0.00396728515625,-0.806427001953125,-0.4497528076171875
12.82,0.18260550498962402,-0.09904056042432785,0.4108746349811554,-0.01220703125,-0.8004150390625,-0.4852294921875
12.84,0.2841164171695709,-0.11695511639118195,0.3782239854335785,-0.0316619873046875,-0.8177032470703125,-0.530517578125
12.86,0.5383614897727966,-0.20097465813159943,0.32181423902511597,-0.040985107421875,-0.844970703125,-0.54229736328125
12.88,0.7449505925178528,-0.06566103547811508,0.17612655460834503,-0.0508270263671875,-0.8671875,-0.5959930419921875
12.9,0.7641322612762451,0.014547517523169518,0.08398225158452988,-0.1012115478515625,-0.8484954833984375,-0.590667724609375
12.92,0.8307986855506897,-0.012015383690595627,0.07083289325237274,-0.1270599365234375,-0.847900390625,-0.551910400390625
12.94,0.913486897945404,-0.21234208345413208,-0.04146461933851242,-0.0997772216796875,-0.867523193359375,-0.5272674560546875
12.96,0.8994091749191284,-0.43152478337287903,-0.29432031512260437,-0.1174774169921875,-0.9222564697265625,-0.473724365234375
12.98,0.8677484393119812,-0.3330325484275818,-0.5407447218894958,-0.144195556640625,-0.9590911865234375,-0.422393798828125
13,0.9230726361274719,-0.06027212738990784,-0.7565140724182129,-0.150909423828125,-0.926971435546875,-0.41552734375
13.02,0.963862955570221,-0.04649479687213898,-0.9701541662216187,-0.1399078369140625,-0.8719024658203125,-0.4630279541015625
13.04,0.9309684038162231,-1.040812611579895,-1.1921885013580322,-0.10400390625,-0.8556060791015625,-0.3820037841796875
13.06,1.0073974132537842,-1.018783450126648,-1.3013808727264404,-0.0933074951171875,-0.8610687255859375,-0.2972412109375
13.08,0.9621604084968567,-1.0327283143997192,-1.3513028621673584,0.0245819091796875,-0.908172607421875,-0.2992401123046875
13.1,0.8558776378631592,-0.9827647805213928,-1.4884380102157593,0.0355224609375,-0.8820648193359375,-0.3085174560546875
13.12,0.6090795993804932,-1.066083312034607,-1.5794785022735596,0.0134124755859375,-0.837860107421875,-0.2759857177734375
13.14,0.21532616019248962,-1.6554163694381714,-1.5327568054199219,0.0762481689453125,-0.8504638671875,-0.2207183837890625
13.16,-0.32764339447021484,-2.206345319747925,-1.5270684957504272,0.1336669921875,-0.827423095703125,-0.14105224609375
13.18,-0.8301853537559509,-2.1859030723571777,-1.5015807151794434,0.14398193359375,-0.81207275390625,-0.100921630859375
13.2,-1.212677001953125,-1.4481135606765747,-1.105889916419983,0.19561767578125,-0.92254638671875,-0.1848907470703125
13.22,-1.1991612911224365,-0.17957082390785217,-0.5175818800926208,0.311248779296875,-0.9596099853515625,-0.3455352783203125
13.24,-1.144820213317871,0.8443863987922668,-0.07664737105369568,0.3694305419921875,-0.9926910400390625,-0.5153656005859375
13.26,-1.3718822002410889,1.23844575881958,0.14458248019218445,0.32763671875,-0.953887939453125,-0.464385986328125
13.28,-1.6601536273956299,0.10373092442750931,0.21808385848999023,0.257080078125,-0.902069091796875,-0.34307861328125
13.3,-1.6410329341888428,-0.7537427544593811,0.4145178198814392,0.3306732177734375,-0.9199066162109375,-0.498779296875
13.32,-1.203037977218628,0.18428274989128113,0.8430992960929871,0.3306732177734375,-0.9199066162109375,-0.498779296875
13.34,-0.5680311918258667,0.7384681701660156,1.0986313819885254,0.307037353515625,-0.9408416748046875,-0.75445556640625
13.36,-0.07336422801017761,0.1950800120830536,0.9092428684234619,0.0466156005859375,-0.883544921875,-0.70159912109375
13.38,0.13308987021446228,-0.2149895429611206,0.4530194103717804,0.0466156005859375,-0.883544921875,-0.70159912109375
13.4,0.06084896996617317,-0.07545134425163269,0.1425081491470337,0.00592041015625,-0.9251708984375,-0.642364501953125
13.42,-0.021383851766586304,0.1882532685995102,0.06366340070962906,0.0520782470703125,-0.989990234375,-0.5578155517578125
13.44,-0.10092981159687042,0.13870622217655182,-0.10485158115625381,0.0785369873046875,-0.952362060546875,-0.5069427490234375
13.46,-0.162433922290802,0.04351845011115074,-0.39037972688674927,0.0488433837890625,-0.9135284423828125,-0.5089569091796875
13.48,-0.12572623789310455,0.1326880007982254,-0.5946431159973145,0.0241241455078125,-0.916412353515625,-0.51055908203125
13.5,0.11444854736328125,0.16940979659557343,-0.737083375453949,0.032867431640625,-0.9074249267578125,-0.5252685546875
13.52,0.34189555048942566,-0.015196530148386955,-0.8616790771484375,0.065765380859375,-0.8884735107421875,-0.527374267578125
13.54,0.3264566659927368,-0.13391812145709991,-0.8684682846069336,0.1076812744140625,-0.8654937744140625,-0.523284912109375
13.56,0.0741698369383812,0.08929898589849472,-0.7214178442955017,0.155364990234375,-0.842864990234375,-0.4953765869140625
13.58,-0.13823376595973969,0.44593381881713867,-0.5786553621292114,0.19207763671875,-0.80859375,-0.4774017333984375
13.6,-0.0251623447984457,0.6021252870559692,-0.5166082382202148,0.1843109130859375,-0.784271240234375,-0.4903717041015625
13.62,0.2903439402580261,0.4343501329421997,-0.4798787236213684,0.1621246337890625,-0.7415924072265625,-0.5623321533203125
13.64,0.5727737545967102,0.38487178087234497,-0.2389414757490158,0.1767730712890625,-0.7086181640625,-0.6019744873046875
13.66,0.8376248478889465,0.5428462624549866,0.17434383928775787,0.26397705078125,-0.69122314453125,-0.6154327392578125
13.68,1.0315916538238525,0.5823076367378235,0.36564987897872925,0.304656982421875,-0.68902587890625,-0.6446990966796875
13.7,1.1092199087142944,0.34983736276626587,0.32410377264022827,0.239105224609375,-0.6981048583984375,-0.6184844970703125
13.72,0.9960430264472961,0.17163114249706268,0.31601682305336,0.1662750244140625,-0.727020263671875,-0.5419921875
13.74,0.6810179352760315,0.15277622640132904,0.3433597683906555,0.158355712890625,-0.7134857177734375,-0.444671630859375
13.76,0.35358282923698425,0.09694545716047287,0.3651750385761261,0.1868133544921875,-0.723358154296875,-0.375091552734375
13.78,-0.023390011861920357,0.1806155890226364,0.3206541836261749,0.233795166015625,-0.7610321044921875,-0.3701171875
13.8,-0.3919121026992798,0.35756292939186096,0.2542751431465149,0.20330810546875,-0.7676239013671875,-0.36956787109375
13.82,-0.7227238416671753,0.529826283454895,0.27368614077568054,0.150482177734375,-0.7479705810546875,-0.3567352294921875
13.84,-0.8528698682785034,0.34291714429855347,0.3207513988018036,0.165740966796875,-0.73681640625,-0.3753814697265625
13.86,-0.8915935754776001,0.3526270389556885,0.3274921178817749,0.1737213134765625,-0.7407989501953125,-0.39166259765625
13.88,-0.939263105392456,0.4064934551715851,0.391327828168869,0.175506591796875,-0.735931396484375,-0.4305419921875
13.9,-1.0070033073425293,0.3682911992073059,0.4531871974468231,0.1692047119140625,-0.7356109619140625,-0.438201904296875
13.92,-1.0308771133422852,0.1264767199754715,0.4643727242946625,0.165191650390625,-0.7622833251953125,-0.433258056640625
13.94,-0.920958399772644,-0.11260724067687988,0.4038334786891937,0.15252685546875,-0.7859954833984375,-0.4405670166015625
13.96,-0.8046237826347351,-0.23106729984283447,0.3200024962425232,0.144989013671875,-0.7949981689453125,-0.4870758056640625
13.98,-0.8148971796035767,-0.331451952457428,0.2650180757045746,0.1264801025390625,-0.7862091064453125,-0.5037384033203125
14,-0.8765693306922913,-0.37093785405158997,0.22737562656402588,0.0972747802734375,-0.78485107421875,-0.4914398193359375
14.02,-0.898992657661438,-0.3712931275367737,0.24436606466770172,0.0865631103515625,-0.7675018310546875,-0.476226806640625
14.04,-0.9433174729347229,-0.37695154547691345,0.22062398493289948,0.087432861328125,-0.69354248046875,-0.4521942138671875
14.06,-1.2553808689117432,-0.6279062628746033,0.21092954277992249,0.097442626953125,-0.6592254638671875,-0.4217681884765625
14.08,-1.772233009338379,-1.0521923303604126,0.184516042470932,0.1035003662109375,-0.703338623046875,-0.38934326171875
14.1,-2.059921979904175,-0.8828301429748535,0.0707591250538826,0.050750732421875,-0.7638397216796875,-0.4142608642578125
14.12,-1.9504677057266235,-0.5303155183792114,-0.0859825536608696,-0.0130157470703125,-0.732269287109375,-0.52032470703125
14.14,-1.7000198364257812,-0.5099391341209412,-0.2590741813182831,-0.0714263916015625,-0.6976165771484375,-0.6686553955078125
14.16,-1.5659722089767456,-0.5492242574691772,-0.41607657074928284,-0.08355712890625,-0.7810821533203125,-0.791717529296875
14.18,-1.4416474103927612,-0.5745546221733093,-0.4676569402217865,-0.0161285400390625,-0.810089111328125,-0.8367919921875
14.2,-1.2119007110595703,-0.27399319410324097,-0.39764243364334106,0.0489349365234375,-0.7121734619140625,-0.8140411376953125
14.22,-1.134276032447815,0.014417555183172226,-0.2822708487510681,0.0833892822265625,-0.6253662109375,-0.7878265380859375
14.24,-1.0388543605804443,0.08849790692329407,-0.25135180354118347,0.0601348876953125,-0.7085723876953125,-0.8781890869140625
14.26,-0.6391248106956482,-0.044073451310396194,-0.3372696340084076,0.0177154541015625,-0.7848663330078125,-1.0890350341796875
14.28,-0.020600616931915283,-0.05981246754527092,-0.34043535590171814,0.01641845703125,-0.709442138671875,-1.2207794189453125
14.3,0.4946635365486145,-0.16268399357795715,-0.3000729978084564,0.1258087158203125,-0.6668701171875,-1.1390533447265625
14.32,0.3972509503364563,-0.4070258140563965,-0.20633558928966522,0.1720428466796875,-0.7026214599609375,-1.0619659423828125
14.34,0.07523670047521591,-0.6277472972869873,-0.11794421076774597,0.160552978515625,-0.77166748046875,-1.05841064453125
14.36,0.12292032688856125,-0.49519801139831543,-0.14454972743988037,0.162261962890625,-0.751739501953125,-1.0406951904296875
14.38,0.4090450406074524,-0.42345353960990906,-0.2379441261291504,0.134613037109375,-0.72650146484375,-0.983551025390625
14.4,0.6619105935096741,-0.5012345910072327,-0.31102579832077026,0.085845947265625,-0.676971435546875,-0.9260406494140625
14.42,0.546789824962616,-0.6807953119277954,-0.27391090989112854,0.0579376220703125,-0.67535400390625,-0.8720855712890625
14.44,0.38520148396492004,-0.8441365957260132,-0.17353583872318268,0.0744171142578125,-0.7221221923828125,-0.8128509521484375
14.46,0.297486811876297,-0.728334367275238,-0.08537907898426056,0.125701904296875,-0.688262939453125,-0.8230133056640625
14.48,0.18587718904018402,-0.6292133331298828,-0.12146038562059402,0.10906982421875,-0.6514434814453125,-0.8362884521484375
14.5,0.09749140590429306,-0.39263302087783813,-0.29543831944465637,0.020050048828125,-0.6896514892578125,-0.81353759765625
14.52,-0.10146857053041458,-0.2550080716609955,-0.42606714367866516,-0.0265960693359375,-0.69110107421875,-0.81927490234375
14.54,-0.23497895896434784,-0.03714364022016525,-0.48631957173347473,0.009521484375,-0.70367431640625,-0.7884063720703125
14.56,-0.4482094645500183,0.231978639960289,-0.42780834436416626,0.0301666259765625,-0.6531219482421875,-0.8247833251953125
14.58,-0.7748757600784302,0.30902576446533203,-0.2974527180194855,0.0642242431640625,-0.6665191650390625,-0.7567291259765625
14.6,-1.0497174263000488,0.22384588420391083,-0.1791772097349167,0.08642578125,-0.626800537109375,-0.67510986328125
14.62,-1.1911211013793945,-0.4074234366416931,-0.11809282004833221,0.10601806640625,-0.55902099609375,-0.7117767333984375
14.64,-0.6919909715652466,-0.8030000329017639,-0.12715795636177063,0.1534271240234375,-0.4757843017578125,-0.98748779296875
14.66,-0.21465104818344116,-0.9556487202644348,-0.1880604475736618,0.0739288330078125,-0.533111572265625,-0.9472198486328125
14.68,-0.16538630425930023,-0.9696478843688965,-0.010998056270182133,0.0739288330078125,-0.533111572265625,-0.9472198486328125
14.7,-0.27210795879364014,-0.8502163290977478,0.3283134400844574,0.018218994140625,-0.5500030517578125,-0.8410797119140625
14.72,-0.3947172164916992,-0.8055159449577332,0.32430538535118103,0.0067901611328125,-0.5205078125,-0.8072967529296875
14.74,-0.43699970841407776,-0.5935168862342834,0.1793828010559082,-0.0792236328125,-0.4886627197265625,-0.8168182373046875
14.76,-0.24808676540851593,-0.08837300539016724,0.09805040061473846,-0.131683349609375,-0.50897216796875,-0.8462982177734375
14.78,0.009582320228219032,0.245822012424469,-0.03749943897128105,-0.146331787109375,-0.5494842529296875,-0.9010467529296875
14.8,0.21687185764312744,0.3369085192680359,-0.10587609559297562,-0.1737518310546875,-0.5398101806640625,-0.925750732421875
14.82,0.378895103931427,0.38176095485687256,-0.09532545506954193,-0.126190185546875,-0.521759033203125,-0.9377899169921875
14.84,0.5016977190971375,0.37847432494163513,-0.030779218301177025,-0.026641845703125,-0.53790283203125,-0.8494720458984375
14.86,0.7729004621505737,0.3388187885284424,0.04187794029712677,-0.02020263671875,-0.53875732421875,-0.760162353515625
14.88,0.8054280877113342,0.08680493384599686,-0.08748484402894974,-0.03314208984375,-0.540557861328125,-0.794921875
14.9,0.6484642624855042,-0.13208453357219696,-0.14750316739082336,-0.07757568359375,-0.5248260498046875,-0.8009796142578125
14.92,0.5257031917572021,0.012380236759781837,0.02196894772350788,-0.008270263671875,-0.59136962890625,-0.8030853271484375
14.94,0.5745370388031006,-0.04248913750052452,0.02442278526723385,0.1738128662109375,-0.720458984375,-0.78765869140625
14.96,0.6317704916000366,-0.32133010029792786,-0.28645867109298706,0.0669708251953125,-0.6949310302734375,-0.803375244140625
14.98,0.765489935874939,-0.42575502395629883,-0.21367207169532776,0.00555419921875,-0.619598388671875,-0.8614044189453125
15,0.897651731967926,-0.622316300868988,-0.05348426476120949,0.0687255859375,-0.6383056640625,-0.859771728515625
15.02,1.1303291320800781,-0.6145110726356506,-0.13572347164154053,0.0235137939453125,-0.619354248046875,-0.8465423583984375
15.04,1.0502992868423462,-0.6532065868377686,-0.08309195935726166,0.038330078125,-0.6561126708984375,-0.8510589599609375
15.06,0.7878890037536621,-0.7279708385467529,0.2027648240327835,-0.02508544921875,-0.6150054931640625,-0.73883056640625
15.08,0.6824499368667603,-0.44657135009765625,-0.21052128076553345,0.0348358154296875,-0.6437225341796875,-0.5814056396484375
15.1,0.7691971063613892,-0.6162317991256714,-0.026226278394460678,-0.1459808349609375,-0.733428955078125,-0.5453948974609375
15.12,1.0621775388717651,-0.9056491851806641,0.13932113349437714,-0.0300750732421875,-0.6168212890625,-0.6141510009765625
15.14,0.8421229720115662,-0.9210616946220398,0.046547528356313705,-0.019378662109375,-0.699188232421875,-0.638580322265625
15.16,0.4672550857067108,-1.1116242408752441,0.058710984885692596,-0.0872344970703125,-0.67742919921875,-0.5400390625
15.18,0.39566662907600403,-1.539933443069458,0.15465162694454193,-0.136138916015625,-0.6739349365234375,-0.433868408203125
15.2,0.08447334170341492,-2.3500399589538574,0.05869127810001373,-0.109283447265625,-0.6641998291015625,-0.5667572021484375
15.22,0.037999048829078674,-2.361778736114502,0.2676279842853546,-0.151824951171875,-0.690887451171875,-0.5813751220703125
15.24,0.018993398174643517,-1.8048468828201294,0.22507919371128082,-0.07220458984375,-0.8018341064453125,-0.558258056640625
15.26,-0.030714236199855804,-0.7643921971321106,0.10331866890192032,-0.219451904296875,-0.7042083740234375,-0.512054443359375
15.28,0.046781353652477264,0.11119203269481659,-0.02316071279346943,-0.3451080322265625,-0.6793365478515625,-0.4004974365234375
15.3,0.027479294687509537,0.45740750432014465,-0.1927603930234909,-0.3975372314453125,-0.65814208984375,-0.4607391357421875
15.32,-0.08679960668087006,0.7849371433258057,-0.3051261007785797,-0.4540557861328125,-0.651824951171875,-0.5592498779296875
15.34,-0.251388818025589,1.0609031915664673,-0.35941755771636963,-0.4236297607421875,-0.7054595947265625,-0.5724029541015625
15.36,-0.34611985087394714,0.9383602738380432,-0.5012721419334412,-0.322021484375,-0.742401123046875,-0.5115203857421875
15.38,-0.2539611756801605,0.4818347990512848,-0.5691590905189514,-0.165985107421875,-0.76409912109375,-0.6215972900390625
15.4,-0.10725774616003036,-0.11810719966888428,-0.4534931778907776,-0.165985107421875,-0.76409912109375,-0.6215972900390625
15.42,0.13156521320343018,0.16674184799194336,-0.45516300201416016,-0.079681396484375,-0.795684814453125,-0.7056427001953125
15.44,0.3141845762729645,0.6936123371124268,-0.618361234664917,-0.1463623046875,-0.7613983154296875,-0.667449951171875
15.46,0.3488227128982544,1.579145073890686,-0.6161848902702332,-0.2934112548828125,-0.7032623291015625,-0.6183929443359375
15.48,0.26671531796455383,1.2754567861557007,-0.4091339707374573,-0.2795867919921875,-0.715179443359375,-0.6467742919921875
15.5,0.04020920395851135,0.20139142870903015,-0.4201336205005646,-0.1436767578125,-0.7347259521484375,-0.6751251220703125
15.52,-0.24448777735233307,0.38092470169067383,-0.5041773915290833,-0.132232666015625,-0.76849365234375,-0.588226318359375
15.54,-0.4102269411087036,0.006100769154727459,-0.46877866983413696,-0.077789306640625,-0.833465576171875,-0.557464599609375
15.56,-0.4830670654773712,-0.43277591466903687,-0.3271341919898987,-0.0614013671875,-0.757171630859375,-0.6588897705078125
15.58,-0.45164307951927185,-0.5745495557785034,-0.20405380427837372,-0.02117919921875,-0.7239837646484375,-0.733062744140625
15.6,-0.32774457335472107,-0.35650405287742615,-0.1386132687330246,-0.06781005859375,-0.770599365234375,-0.743011474609375
15.62,-0.12928767502307892,-0.10944925993680954,-0.16202698647975922,-0.1053466796875,-0.771148681640625,-0.7700958251953125
15.64,0.09863576292991638,-0.007835285738110542,-0.21152342855930328,-0.1365203857421875,-0.7512359619140625,-0.7730255126953125
15.66,0.21405422687530518,-0.20505781471729279,-0.3239314556121826,-0.12249755859375,-0.7474822998046875,-0.7852020263671875
15.68,0.2557428181171417,-0.28275659680366516,-0.4367232620716095,-0.1176605224609375,-0.73052978515625,-0.7817840576171875
15.7,0.3185841143131256,-0.16650348901748657,-0.44801798462867737,-0.1264801025390625,-0.75482177734375,-0.756683349609375
15.72,0.2779168486595154,-0.14817854762077332,-0.4160560667514801,-0.1172943115234375,-0.7773284912109375,-0.752227783203125
15.74,0.07769106328487396,-0.1274101585149765,-0.39399683475494385,-0.1018829345703125,-0.772674560546875,-0.707427978515625
15.76,-0.1452711820602417,-0.16373220086097717,-0.3911861479282379,-0.10504150390625,-0.7684173583984375,-0.64874267578125
15.78,-0.2315562665462494,-0.15903012454509735,-0.41141870617866516,-0.1084136962890625,-0.7735443115234375,-0.650482177734375
15.8,-0.17489831149578094,-0.18078681826591492,-0.4206247329711914,-0.11053466796875,-0.7815704345703125,-0.704498291015625
15.82,-0.032161399722099304,-0.22985583543777466,-0.45637446641921997,-0.0950775146484375,-0.7677459716796875,-0.750732421875
15.84,0.11500914394855499,-0.2302318662405014,-0.5145115256309509,-0.085418701171875,-0.74835205078125,-0.7570343017578125
15.86,0.2377592921257019,-0.16209037601947784,-0.5725141167640686,-0.089752197265625,-0.736053466796875,-0.730377197265625
15.88,0.28996098041534424,-0.19252869486808777,-0.645858645439148,-0.0947723388671875,-0.7564544677734375,-0.7370758056640625
15.9,0.3185468316078186,-0.19193854928016663,-0.7266623973846436,-0.0773162841796875,-0.7660675048828125,-0.7281036376953125
15.92,0.3713951110839844,-0.21733231842517853,-0.7618795037269592,-0.046051025390625,-0.760009765625,-0.7276763916015625
15.94,0.3666280508041382,-0.3541676700115204,-0.7302688360214233,0.0001983642578125,-0.7563934326171875,-0.7295379638671875
15.96,0.34279170632362366,-0.44588106870651245,-0.6767747402191162,0.0436553955078125,-0.7552490234375,-0.6968231201171875
15.98,0.29019081592559814,-0.5745868682861328,-0.656169593334198,0.053680419921875,-0.7589263916015625,-0.68896484375
16,0.2415897250175476,-0.6492379307746887,-0.6254199147224426,0.04376220703125,-0.7361602783203125,-0.667816162109375
16.02,0.24060727655887604,-0.7073408961296082,-0.5749050974845886,0.064788818359375,-0.7257080078125,-0.6627960205078125
16.04,0.3072451651096344,-0.7429993152618408,-0.5851931571960449,0.0817108154296875,-0.722381591796875,-0.65966796875
16.06,0.39890795946121216,-0.5693358778953552,-0.6104726791381836,0.0663299560546875,-0.701385498046875,-0.686065673828125
16.08,0.34064146876335144,-0.44832292199134827,-0.6269422173500061,0.0663299560546875,-0.701385498046875,-0.686065673828125
16.1,0.21279668807983398,-0.3956546485424042,-0.7274096608161926,0.049774169921875,-0.7122802734375,-0.6192779541015625
16.12,0.16486725211143494,-0.32328352332115173,-0.8183233737945557,0.031829833984375,-0.688934326171875,-0.5777587890625
16.14,0.2604829967021942,-0.21926364302635193,-0.8187401294708252,0.0506591796875,-0.6855621337890625,-0.5884857177734375
16.16,0.3731224536895752,-0.20212221145629883,-0.7726038098335266,0.0865325927734375,-0.6923370361328125,-0.637664794921875
16.18,0.3576042056083679,-0.1482027769088745,-0.7027203440666199,0.1116943359375,-0.69647216796875,-0.632049560546875
16.2,0.26418450474739075,-0.18792489171028137,-0.6477050185203552,0.1275482177734375,-0.7021026611328125,-0.602691650390625
16.22,0.10744176805019379,-0.14047323167324066,-0.6036238074302673,0.135009765625,-0.7097320556640625,-0.5755462646484375
16.24,-0.006816094275563955,-0.08910670876502991,-0.5133280158042908,0.1363677978515625,-0.72833251953125,-0.5552520751953125
16.26,-0.028211131691932678,-0.11371351778507233,-0.4131481647491455,0.157012939453125,-0.741729736328125,-0.5574798583984375
16.28,-0.05300622805953026,-0.060380518436431885,-0.3813638687133789,0.183349609375,-0.7372283935546875,-0.5833282470703125
16.3,-0.12321300804615021,0.04177221283316612,-0.30981510877609253,0.17388916015625,-0.755950927734375,-0.571197509765625
16.32,-0.2755996286869049,0.11582833528518677,-0.1458008736371994,0.1856689453125,-0.7931365966796875,-0.5565338134765625
16.34,-0.47044554352760315,0.1648334264755249,0.023802002891898155,0.220062255859375,-0.8156585693359375,-0.541473388671875
16.36,-0.5031810998916626,0.2530740797519684,0.10642178356647491,0.2455596923828125,-0.8035125732421875,-0.550506591796875
16.38,-0.3733525574207306,0.4475679099559784,0.08787179738283157,0.2447967529296875,-0.80682373046875,-0.61737060546875
16.4,-0.15948019921779633,0.6101392507553101,0.024030767381191254,0.24005126953125,-0.8172607421875,-0.6765899658203125
16.42,-0.010867028497159481,0.6663239598274231,0.025497635826468468,0.250091552734375,-0.8155517578125,-0.7088165283203125
16.44,0.02389574609696865,0.6713136434555054,0.061397846788167953,0.2756195068359375,-0.8202056884765625,-0.700927734375
16.46,0.13091248273849487,0.7188258171081543,0.10734323412179947,0.3044281005859375,-0.8136444091796875,-0.6739654541015625
16.48,0.23380716145038605,0.7317634224891663,0.1125827357172966,0.3201904296875,-0.7965087890625,-0.697845458984375
16.5,0.24151036143302917,0.689496636390686,0.1497386246919632,0.3079071044921875,-0.8107757568359375,-0.68292236328125
16.52,0.15326198935508728,0.6519737839698792,0.21736827492713928,0.3105621337890625,-0.8110809326171875,-0.633758544921875
16.54,0.041555166244506836,0.673277735710144,0.32326966524124146,0.30535888671875,-0.8136138916015625,-0.5810546875
16.56,-0.04163958877325058,0.6648634672164917,0.42231637239456177,0.290863037109375,-0.79266357421875,-0.556671142578125
16.58,-0.062437545508146286,0.7009251117706299,0.5065215229988098,0.2633514404296875,-0.7983551025390625,-0.5599365234375
16.6,-0.015682024881243706,0.7226842045783997,0.5469075441360474,0.2444000244140625,-0.798187255859375,-0.57080078125
16.62,0.0028269453905522823,0.6758173108100891,0.516662061214447,0.2083740234375,-0.7643280029296875,-0.588165283203125
16.64,-0.03929920122027397,0.6327449679374695,0.5132982134819031,0.1713714599609375,-0.7536468505859375,-0.5745697021484375
16.66,-0.12476430088281631,0.5628822445869446,0.5320543050765991,0.1733856201171875,-0.7488861083984375,-0.5629119873046875
16.68,-0.1740705966949463,0.592958927154541,0.5429128408432007,0.1666717529296875,-0.7568206787109375,-0.5392608642578125
16.7,-0.21530112624168396,0.6057591438293457,0.5387295484542847,0.14453125,-0.7647552490234375,-0.5517730712890625
16.72,-0.30296891927719116,0.6352248787879944,0.5311541557312012,0.131683349609375,-0.7663726806640625,-0.560150146484375
16.74,-0.2715012729167938,0.6446881890296936,0.5470433831214905,0.1318359375,-0.7534942626953125,-0.5500946044921875
16.76,-0.09757422655820847,0.6074057817459106,0.5598132610321045,0.1416015625,-0.7541961669921875,-0.6025543212890625
16.78,0.12367559969425201,0.5373478531837463,0.5757170915603638,0.1514434814453125,-0.7507171630859375,-0.6526336669921875
16.8,0.22351351380348206,0.5434912443161011,0.5622106194496155,0.1486663818359375,-0.7552337646484375,-0.657958984375
16.82,0.1882902830839157,0.6041266322135925,0.5211768746376038,0.12823486328125,-0.7776031494140625,-0.614990234375
16.84,0.16157397627830505,0.7837808132171631,0.4715030789375305,0.1169586181640625,-0.7834320068359375,-0.56317138671875
16.86,0.20499922335147858,0.8885213732719421,0.4734618365764618,0.11285400390625,-0.7949676513671875,-0.557037353515625
16.88,0.20900434255599976,0.9283713102340698,0.5126185417175293,0.128875732421875,-0.809356689453125,-0.5783233642578125
16.9,0.17196190357208252,0.9273363947868347,0.5606923699378967,0.1488800048828125,-0.821319580078125,-0.56982421875
16.92,0.07998377829790115,0.8916156888008118,0.6002988815307617,0.159881591796875,-0.82525634765625,-0.559051513671875
16.94,0.050871968269348145,0.8953115940093994,0.6854782104492188,0.15777587890625,-0.8360595703125,-0.5382537841796875
16.96,0.07366436719894409,0.735824465751648,0.8311893343925476,0.175537109375,-0.850616455078125,-0.5703582763671875
16.98,0.08077047765254974,0.5956894755363464,0.9533751606941223,0.1919403076171875,-0.8526153564453125,-0.5874786376953125
17,0.06375714391469955,0.5027446150779724,0.992392361164093,0.18157958984375,-0.8504180908203125,-0.5786895751953125
17.02,0.012531237676739693,0.41407760977745056,0.9793394207954407,0.150604248046875,-0.8426666259765625,-0.5589447021484375
17.04,0.07483962178230286,0.4023061692714691,0.9819032549858093,0.1188201904296875,-0.839447021484375,-0.5308074951171875
17.06,0.2113306224346161,0.36316993832588196,0.9832755327224731,0.1015472412109375,-0.84063720703125,-0.560516357421875
17.08,0.27243950963020325,0.3829449713230133,0.9559041261672974,0.0643310546875,-0.84814453125,-0.54925537109375
17.1,0.23334750533103943,0.44534897804260254,0.8992288708686829,0.02435302734375,-0.8550567626953125,-0.505889892578125
17.12,0.18706895411014557,0.5051769018173218,0.8348408341407776,0.02435302734375,-0.8550567626953125,-0.505889892578125
17.14,0.1347985565662384,0.5602960586547852,0.7328465580940247,0.0041961669921875,-0.842132568359375,-0.49462890625
17.16,0.05829180032014847,0.5602188110351562,0.6691535711288452,-0.013153076171875,-0.8394927978515625,-0.4973602294921875
17.18,0.018863968551158905,0.47133317589759827,0.6796179413795471,-0.0123443603515625,-0.8486480712890625,-0.4975128173828125
17.2,0.047195740044116974,0.4852372705936432,0.7130414247512817,0.00579833984375,-0.848785400390625,-0.5063934326171875
17.22,0.09426285326480865,0.4892794191837311,0.7322747707366943,0.0037841796875,-0.8543243408203125,-0.5249176025390625
17.24,0.10673709958791733,0.4694596230983734,0.7475280165672302,-0.00958251953125,-0.86029052734375,-0.5271148681640625
17.26,0.08987795561552048,0.4239896237850189,0.7546650171279907,-0.0164337158203125,-0.847442626953125,-0.51995849609375
17.28,0.07267127186059952,0.42756572365760803,0.726482093334198,-0.02789306640625,-0.8394012451171875,-0.5103607177734375
17.3,0.06298642605543137,0.5392264723777771,0.6626421213150024,-0.0583648681640625,-0.823638916015625,-0.4969482421875
17.32,-0.02556634694337845,0.6658432483673096,0.5840573310852051,-0.0583648681640625,-0.823638916015625,-0.4969482421875
17.34,-0.17158932983875275,0.629940927028656,0.581220269203186,-0.072265625,-0.8380889892578125,-0.4705352783203125
17.36,-0.2766377329826355,0.42541468143463135,0.6447928547859192,-0.0473785400390625,-0.8473052978515625,-0.45263671875
17.38,-0.32593363523483276,0.33181628584861755,0.6905824542045593,-0.0186614990234375,-0.83343505859375,-0.4551849365234375
17.4,-0.2925967276096344,0.3658791780471802,0.7081401348114014,-0.0150299072265625,-0.8307342529296875,-0.471405029296875
17.42,-0.3107597231864929,0.4052564203739166,0.773701012134552,-0.0246429443359375,-0.832855224609375,-0.484283447265625
17.44,-0.4643285274505615,0.4082450270652771,0.8914958238601685,-0.0423126220703125,-0.863739013671875,-0.4809417724609375
17.46,-0.7297021150588989,0.4135569632053375,0.9802682995796204,-0.0454864501953125,-0.88079833984375,-0.4696197509765625
17.48,-0.9435968399047852,0.46962156891822815,0.9413393139839172,-0.05419921875,-0.8827362060546875,-0.4692535400390625
17.5,-1.020498514175415,0.5406989455223083,0.8146266341209412,-0.076629638671875,-0.8540496826171875,-0.514984130859375
17.52,-0.9930887818336487,0.600273072719574,0.7047059535980225,-0.1098175048828125,-0.861663818359375,-0.5766143798828125
17.54,-0.9206308126449585,0.7318047285079956,0.7200742959976196,-0.112640380859375,-0.8877105712890625,-0.6197357177734375
17.56,-0.8195374608039856,0.8070786595344543,0.818312406539917,-0.0660552978515625,-0.9017333984375,-0.6629638671875
17.58,-0.7746824026107788,0.8266462683677673,0.902963399887085,-0.02203369140625,-0.8814239501953125,-0.69110107421875
17.6,-0.845123827457428,0.7553995251655579,1.0303839445114136,-0.007720947265625,-0.8581085205078125,-0.68572998046875
17.62,-0.945239245891571,0.7317594289779663,1.1655523777008057,-0.0336456298828125,-0.852294921875,-0.6723175048828125
17.64,-0.9100713729858398,0.5067164897918701,1.042822003364563,-0.0905914306640625,-0.819793701171875,-0.7146453857421875
17.66,-0.6691160202026367,0.06812259554862976,0.7194758653640747,-0.1321563720703125,-0.736663818359375,-0.773956298828125
17.68,-0.34335097670555115,0.09729219973087311,0.5130955576896667,-0.1421356201171875,-0.6844482421875,-0.802978515625
17.7,-0.12626765668392181,0.4938001334667206,0.5262147784233093,-0.1177825927734375,-0.6639251708984375,-0.786346435546875
17.72,0.11012197285890579,0.6914229393005371,0.7161016464233398,-0.116546630859375,-0.712005615234375,-0.7658538818359375
17.74,0.37270939350128174,0.5346956253051758,0.8228080868721008,-0.130767822265625,-0.6414794921875,-0.827056884765625
17.76,0.47846829891204834,0.16003626585006714,0.6506784558296204,-0.130767822265625,-0.6414794921875,-0.827056884765625
17.78,0.3304327726364136,0.022552980110049248,0.2741505801677704,-0.1831207275390625,-0.542266845703125,-0.754486083984375
17.8,0.20988532900810242,0.031918782740831375,-0.12309610098600388,-0.262969970703125,-0.5125732421875,-0.64886474609375
17.82,0.23752227425575256,0.1989908665418625,-0.40280577540397644,-0.29473876953125,-0.5062255859375,-0.611968994140625
17.84,0.2954265773296356,0.43864500522613525,-0.604320228099823,-0.287200927734375,-0.5064849853515625,-0.620025634765625
17.86,0.30691811442375183,0.6229280233383179,-0.7346007823944092,-0.2831268310546875,-0.5254058837890625,-0.6028900146484375
17.88,0.27488455176353455,0.6574295163154602,-0.7477328181266785,-0.2291259765625,-0.551361083984375,-0.5919952392578125
17.9,0.30484539270401,0.554701030254364,-0.7227102518081665,-0.1559295654296875,-0.58538818359375,-0.6079254150390625
17.92,0.38926199078559875,0.3352919816970825,-0.6763222813606262,-0.118865966796875,-0.63134765625,-0.6795806884765625
17.94,0.32745668292045593,0.030114492401480675,-0.5784175395965576,-0.118865966796875,-0.63134765625,-0.6795806884765625
17.96,0.23561358451843262,-0.23716621100902557,-0.41385576128959656,-0.1067962646484375,-0.6600494384765625,-0.63140869140625
17.98,0.1489039957523346,-0.3667186200618744,-0.22722382843494415,-0.0812530517578125,-0.692474365234375,-0.6164398193359375
18,0.008233695290982723,-0.27723026275634766,-0.09219411015510559,-0.057159423828125,-0.705108642578125,-0.585205078125
18.02,0.15689614415168762,-0.5272030830383301,-0.2599426209926605,-0.0714569091796875,-0.7184295654296875,-0.55523681640625
18.04,0.2753503620624542,0.05650428682565689,-0.3464013636112213,-0.23779296875,-0.836029052734375,-0.6500396728515625
18.06,0.13010233640670776,0.30510079860687256,-0.25479820370674133,-0.2641448974609375,-0.877166748046875,-0.684722900390625
18.08,-0.11536414176225662,0.28714096546173096,-0.4526958465576172,-0.1559906005859375,-0.7677001953125,-0.6376495361328125
18.1,-0.10809984058141708,0.13799382746219635,-0.6078271269798279,-0.1902618408203125,-0.772613525390625,-0.67376708984375
18.12,-0.010696053504943848,0.030849792063236237,-0.7043895721435547,-0.1223907470703125,-0.7115936279296875,-0.75665283203125
18.14,0.08043119311332703,-0.025769012048840523,-0.7524668574333191,-0.0732269287109375,-0.7059478759765625,-0.7664642333984375
18.16,0.19570665061473846,-0.16946280002593994,-0.7150435447692871,-0.02386474609375,-0.7191009521484375,-0.728607177734375
18.18,0.2709084749221802,-0.18252746760845184,-0.6160538792610168,0.0234527587890625,-0.7435302734375,-0.694671630859375
18.2,0.17867973446846008,-0.13131141662597656,-0.5321704149246216,0.0430908203125,-0.7705841064453125,-0.6467132568359375
18.22,0.037939392030239105,-0.10019344836473465,-0.4526873230934143,0.0411529541015625,-0.794219970703125,-0.5702056884765625
18.24,-0.10311972349882126,-0.09629218280315399,-0.37802931666374207,0.0464324951171875,-0.8000335693359375,-0.5441436767578125
18.26,-0.2619099020957947,-0.12464126199483871,-0.3210664391517639,0.057525634765625,-0.7951202392578125,-0.5385894775390625
18.28,-0.3647635877132416,-0.13555756211280823,-0.284748911857605,0.055877685546875,-0.7924346923828125,-0.545684814453125
18.3,-0.34656861424446106,-0.09741390496492386,-0.265733927488327,0.0489959716796875,-0.7897186279296875,-0.5760498046875
18.32,-0.213186576962471,-0.09116266667842865,-0.2500995993614197,0.0547943115234375,-0.769561767578125,-0.62957763671875
18.34,-0.07055912166833878,-0.12039005756378174,-0.2249564230442047,0.0778656005859375,-0.7322235107421875,-0.6804351806640625
18.36,-0.020894363522529602,-0.17735187709331512,-0.21775123476982117,0.0818023681640625,-0.71270751953125,-0.6894378662109375
18.38,-0.02130449004471302,-0.10957390069961548,-0.287252813577652,0.07171630859375,-0.7083740234375,-0.656402587890625
18.4,-0.07587399333715439,0.06563626974821091,-0.32468700408935547,0.040771484375,-0.718505859375,-0.6317291259765625
18.42,-0.1561611145734787,0.14945127069950104,-0.2830926775932312,0.0482177734375,-0.7148590087890625,-0.6141204833984375
18.44,-0.21251918375492096,0.08766700327396393,-0.17384715378284454,0.0769500732421875,-0.716217041015625,-0.6190032958984375
18.46,-0.24067306518554688,-0.010070477612316608,-0.09700910747051239,0.0891571044921875,-0.7125396728515625,-0.6408233642578125
18.48,-0.2258288711309433,-0.07811557501554489,-0.07507504522800446,0.066070556640625,-0.705413818359375,-0.656280517578125
18.5,-0.19926516711711884,-0.10899093002080917,-0.10805456340312958,0.0373992919921875,-0.69671630859375,-0.6705780029296875
18.52,-0.31008782982826233,-0.14779984951019287,-0.1813732534646988,0.01934814453125,-0.6787109375,-0.665191650390625
18.54,-0.4574549198150635,-0.2457391917705536,-0.172427698969841,0.0518951416015625,-0.7110595703125,-0.6218109130859375
18.56,-0.5673718452453613,-0.2749173045158386,-0.08127248287200928,0.0518951416015625,-0.7110595703125,-0.6218109130859375
18.58,-0.5723753571510315,-0.4923902451992035,0.009498696774244308,0.096710205078125,-0.721832275390625,-0.642303466796875
18.6,-0.652877688407898,-0.5795280933380127,0.11060161143541336,0.114044189453125,-0.743194580078125,-0.663177490234375
18.62,-0.8533993363380432,-0.44844570755958557,0.1791314035654068,0.110076904296875,-0.771575927734375,-0.6380615234375
18.64,-0.9260538220405579,-0.1111864447593689,0.16809552907943726,0.07574462890625,-0.8009033203125,-0.6058197021484375
18.66,-0.7821000814437866,0.27349546551704407,0.08345867693424225,0.042938232421875,-0.80316162109375,-0.664886474609375
18.68,-0.5140042304992676,0.5384706854820251,-0.04247395694255829,0.0513153076171875,-0.7621917724609375,-0.768707275390625
18.7,-0.2530713975429535,0.7321195006370544,-0.10982237011194229,0.0788421630859375,-0.733428955078125,-0.8489532470703125
18.72,-0.03581046313047409,0.75420081615448,-0.09087744355201721,0.1132354736328125,-0.7116546630859375,-0.884124755859375
18.74,0.11318381130695343,0.6936176419258118,0.011638546362519264,0.15386962890625,-0.702423095703125,-0.9017333984375
18.76,0.19409491121768951,0.5676817893981934,0.0972122997045517,0.1892547607421875,-0.6785888671875,-0.893157958984375
18.78,0.4310392737388611,0.49334338307380676,0.16605715453624725,0.180908203125,-0.6789703369140625,-0.8704376220703125
18.8,0.6994430422782898,0.2572059631347656,0.29824286699295044,0.1807708740234375,-0.672393798828125,-0.9169769287109375
18.82,0.7249894142150879,-0.020726317539811134,0.4109574556350708,0.174041748046875,-0.668060302734375,-0.906890869140625
18.84,0.528096079826355,-0.18696536123752594,0.4314667284488678,0.1579437255859375,-0.65203857421875,-0.8027496337890625
18.86,0.3449952006340027,-0.24521560966968536,0.36423200368881226,0.1255645751953125,-0.64923095703125,-0.7121124267578125
18.88,0.33399128913879395,-0.18371523916721344,0.27154868841171265,0.08734130859375,-0.671356201171875,-0.6992034912109375
18.9,0.38531625270843506,-0.05528669059276581,0.22838523983955383,0.0774688720703125,-0.683135986328125,-0.732635498046875
18.92,0.27346882224082947,0.1425749957561493,0.26003211736679077,0.074859619140625,-0.69384765625,-0.7204742431640625
18.94,0.14826057851314545,0.16158197820186615,0.31235551834106445,0.06915283203125,-0.6989288330078125,-0.666656494140625
18.96,0.22611355781555176,0.028262797743082047,0.2906651198863983,0.0726165771484375,-0.6960296630859375,-0.665283203125
18.98,0.3800674378871918,-0.06308602541685104,0.18198604881763458,0.0439300537109375,-0.673095703125,-0.7128448486328125
19,0.4375685453414917,-0.10312425345182419,0.10102169215679169,0.0160064697265625,-0.6628570556640625,-0.7189483642578125
19.02,0.433513343334198,-0.07524389028549194,0.07739731669425964,0.0347900390625,-0.6559600830078125,-0.6602325439453125
19.04,0.45540186762809753,-0.04216716066002846,0.11063063889741898,0.0417327880859375,-0.67181396484375,-0.624481201171875
19.06,0.32038068771362305,0.007761516608297825,0.19234387576580048,0.0345458984375,-0.6896209716796875,-0.6221771240234375
19.08,0.04963546246290207,-0.0226840078830719,0.2576187551021576,0.021392822265625,-0.700775146484375,-0.58477783203125
19.1,-0.20053869485855103,-0.04801732674241066,0.2807975709438324,0.010009765625,-0.7005615234375,-0.5454864501953125
19.12,-0.32621726393699646,-0.12894999980926514,0.2665416896343231,0.0034332275390625,-0.6827392578125,-0.5634918212890625
19.14,-0.39654868841171265,-0.1242859959602356,0.18903516232967377,0.00030517578125,-0.67303466796875,-0.6060943603515625
19.16,-0.48368039727211,-0.047265514731407166,0.09670523554086685,-0.022857666015625,-0.679473876953125,-0.6301116943359375
19.18,-0.5791432857513428,0.07568703591823578,0.02377323992550373,-0.029388427734375,-0.711700439453125,-0.645843505859375
19.2,-0.5804444551467896,0.04411233216524124,-0.08473405987024307,0.004638671875,-0.713897705078125,-0.7303466796875
19.22,-0.5666943192481995,0.0189563799649477,-0.217538982629776,0.004638671875,-0.713897705078125,-0.7303466796875
19.24,-0.5058850049972534,-0.08629494160413742,-0.2747037410736084,0.026824951171875,-0.70697021484375,-0.7638702392578125
19.26,-0.3694014847278595,-0.15583273768424988,-0.2218080312013626,0.0818023681640625,-0.7111358642578125,-0.7902374267578125
19.28,-0.13702203333377838,-0.09442690014839172,-0.11374787241220474,0.120391845703125,-0.7189178466796875,-0.8094329833984375
