timestamp,gyro_x,gyro_y,gyro_z,acc_x,acc_y,acc_z
0,-0.5155208706855774,0.2165008783340454,-0.20160821080207825,0,0,0
0.02,-0.46987563371658325,0.580711841583252,-0.1286410689353943,-0.016357421875,-0.687255859375,-0.6391448974609375
0.04,-0.2694881856441498,0.688077986240387,-0.11034142225980759,-0.017791748046875,-0.72637939453125,-0.7304840087890625
0.06,0.13448670506477356,0.7180896997451782,0.023664049804210663,0.0304412841796875,-0.712646484375,-0.8314208984375
0.08,0.487947553396225,0.5696775913238525,0.14034458994865417,0.0421295166015625,-0.694610595703125,-0.849609375
0.1,0.45059487223625183,0.4388423264026642,0.18541646003723145,0.0340576171875,-0.695465087890625,-0.7512664794921875
0.12,0.1951894611120224,0.16528482735157013,0.17546503245830536,0.0329132080078125,-0.7277374267578125,-0.64794921875
0.14,-0.1432303935289383,0.054972704499959946,0.13968013226985931,0.0266265869140625,-0.725921630859375,-0.5856170654296875
0.16,-0.2859119176864624,0.2514652609825134,0.04579784721136093,-0.0012054443359375,-0.7181396484375,-0.60174560546875
0.18,-0.08696552366018295,0.3322437107563019,0.024746358394622803,-0.0260467529296875,-0.7002105712890625,-0.7199249267578125
0.2,0.14773273468017578,0.2896280884742737,0.09072377532720566,0.0124053955078125,-0.6749267578125,-0.768707275390625
0.22,0.1982952505350113,0.11973731964826584,0.1137545257806778,0.0260009765625,-0.681121826171875,-0.7270050048828125
0.24,0.003251719754189253,0.08601611107587814,0.04090135917067528,0.014404296875,-0.6852874755859375,-0.6510162353515625
0.26,-0.12137729674577713,0.09687807410955429,-0.009294698014855385,-0.0022125244140625,-0.7334747314453125,-0.6615142822265625
0.28,-0.040461670607328415,0.029833795502781868,-0.019780362024903297,-0.0003662109375,-0.729949951171875,-0.719329833984375
0.3,-0.00620995881035924,0.09381890296936035,-0.10584334284067154,-0.0110626220703125,-0.71112060546875,-0.7343902587890625
0.32,-0.02954404428601265,0.11098111420869827,-0.16065199673175812,-0.005218505859375,-0.734832763671875,-0.746856689453125
0.34,-0.0031097731553018093,0.03748532384634018,-0.09540960937738419,0.0455169677734375,-0.7417755126953125,-0.74359130859375
0.36,0.1354702115058899,-0.06975351274013519,0.004166249185800552,0.063262939453125,-0.738983154296875,-0.7809906005859375
0.38,0.2078314870595932,-0.2041211724281311,0.13027651607990265,0.0724334716796875,-0.719635009765625,-0.7717132568359375
0.4,0.21388939023017883,-0.3211205005645752,0.2164526730775833,0.075836181640625,-0.7102203369140625,-0.72344970703125
0.42,0.25811970233917236,-0.29655924439430237,0.23205693066120148,0.0416107177734375,-0.7023468017578125,-0.70245361328125
0.44,0.3334439992904663,-0.24589818716049194,0.19855277240276337,-0.0053863525390625,-0.7030029296875,-0.715728759765625
0.46,0.43449607491493225,-0.2723740041255951,0.17480456829071045,-0.0225372314453125,-0.7049407958984375,-0.7241668701171875
0.48,0.46421027183532715,-0.35059717297554016,0.1776490956544876,-0.009368896484375,-0.696075439453125,-0.687957763671875
0.5,0.4657498598098755,-0.41359904408454895,0.11706723272800446,-0.0238494873046875,-0.70361328125,-0.664581298828125
0.52,0.38832804560661316,-0.4497075080871582,0.06000315025448799,-0.0395660400390625,-0.7318267822265625,-0.654052734375
0.54,0.22757962346076965,-0.4756365716457367,0.006003297865390778,-0.04718017578125,-0.77178955078125,-0.62603759765625
0.56,0.1159854605793953,-0.5209625363349915,-0.0806698128581047,-0.049530029296875,-0.7751617431640625,-0.6328887939453125
0.58,0.1296682506799698,-0.6168695688247681,-0.12474805861711502,-0.052947998046875,-0.7532501220703125,-0.6614227294921875
0.6,0.1609947383403778,-0.5450444221496582,-0.06747917830944061,-0.0347747802734375,-0.7613525390625,-0.6422576904296875
0.62,0.1400122344493866,-0.29887938499450684,-0.007299458142369986,-0.0408935546875,-0.7704315185546875,-0.620086669921875
0.64,0.05518708750605583,-0.0985228419303894,0.06663654744625092,-0.059722900390625,-0.780029296875,-0.6103363037109375
0.66,0.10607556998729706,-0.12148435413837433,0.0698845386505127,-0.0657501220703125,-0.7738037109375,-0.6463165283203125
0.68,0.08405468612909317,-0.13567793369293213,0.0007861651247367263,-0.0740509033203125,-0.733123779296875,-0.6494293212890625
0.7,0.008125304244458675,-0.07107151299715042,-0.11168339103460312,-0.09088134765625,-0.729217529296875,-0.6106109619140625
0.72,0.016710536554455757,-0.027216440066695213,-0.20066465437412262,-0.0872344970703125,-0.7388916015625,-0.6196136474609375
0.74,0.037333257496356964,0.04403723403811455,-0.20770472288131714,-0.0724334716796875,-0.7396392822265625,-0.6466827392578125
0.76,0.0006982808117754757,0.10964207351207733,-0.10913421213626862,-0.0386199951171875,-0.767364501953125,-0.643829345703125
0.78,-0.033538252115249634,0.1451694369316101,-0.011030546389520168,-0.0156402587890625,-0.7882537841796875,-0.6325531005859375
0.8,-0.07501459121704102,0.12396695464849472,0.05729497969150543,-0.0045318603515625,-0.77471923828125,-0.6343841552734375
0.82,-0.05811869725584984,0.04715632647275925,0.1274663507938385,-0.003387451171875,-0.772186279296875,-0.658233642578125
0.84,0.058392737060785294,-0.0032354744616895914,0.1941891759634018,-0.0052947998046875,-0.7713775634765625,-0.703338623046875
0.86,0.14046123623847961,0.03201332688331604,0.1860116869211197,-0.0289306640625,-0.75494384765625,-0.703460693359375
0.88,0.09172113239765167,0.12857714295387268,0.14324849843978882,-0.053192138671875,-0.745758056640625,-0.65814208984375
0.9,-0.06762192398309708,0.20181222259998322,0.08441794663667679,-0.0732879638671875,-0.759613037109375,-0.6128692626953125
0.92,-0.1513224095106125,0.11188578605651855,-0.006475476082414389,-0.072845458984375,-0.7571563720703125,-0.63397216796875
0.94,-0.14303705096244812,0.042085666209459305,-0.059533100575208664,-0.0609893798828125,-0.7375946044921875,-0.658966064453125
0.96,-0.06290892511606216,0.07710224390029907,-0.03731141984462738,-0.0414886474609375,-0.7464599609375,-0.6857757568359375
0.98,-0.005441637244075537,0.12899179756641388,0.003108707955107093,-0.037933349609375,-0.754119873046875,-0.6931304931640625
1,0.009416405111551285,0.06707863509654999,0.029696909710764885,-0.0325775146484375,-0.752716064453125,-0.681732177734375
1.02,-0.013766678981482983,0.07184383273124695,0.06839343905448914,-0.0350341796875,-0.7532806396484375,-0.652923583984375
1.04,-0.13038170337677002,0.1299678534269333,0.05871790647506714,-0.047271728515625,-0.751007080078125,-0.6201019287109375
1.06,-0.18698319792747498,0.14386609196662903,0.00962919183075428,-0.0653076171875,-0.7471923828125,-0.6126556396484375
1.08,-0.14671674370765686,0.21736906468868256,0.0003765709698200226,-0.06854248046875,-0.7379913330078125,-0.644439697265625
1.1,-0.024412931874394417,0.1895185261964798,-0.00045673211570829153,-0.05902099609375,-0.745269775390625,-0.6984100341796875
1.12,0.052333246916532516,0.10483293980360031,-0.011493670754134655,-0.050689697265625,-0.7401885986328125,-0.713714599609375
1.14,0.001023186487145722,0.05934055522084236,-0.04096581041812897,-0.05902099609375,-0.7410430908203125,-0.6795196533203125
1.16,-0.09825599938631058,0.05522197484970093,-0.031211715191602707,-0.0422515869140625,-0.753814697265625,-0.642822265625
1.18,-0.049733735620975494,0.03068281151354313,0.006733004003763199,-0.019256591796875,-0.7493896484375,-0.6761322021484375
1.2,0.06410441547632217,0.07990948110818863,0.020022178068757057,-0.0325164794921875,-0.747772216796875,-0.7032470703125
1.22,0.11706909537315369,0.14779771864414215,-0.012835104949772358,-0.0471038818359375,-0.743438720703125,-0.6929168701171875
1.24,0.0826416164636612,0.17990770936012268,-0.05031856521964073,-0.049560546875,-0.740875244140625,-0.6659088134765625
1.26,0.08867873251438141,0.12363512068986893,-0.03593696281313896,-0.0290069580078125,-0.753387451171875,-0.6615753173828125
1.28,0.13072338700294495,0.08194706588983536,0.01942935772240162,-0.011688232421875,-0.765533447265625,-0.6721954345703125
1.3,0.10376341640949249,0.11235716938972473,0.04037565365433693,-0.016448974609375,-0.7701568603515625,-0.6434478759765625
1.32,0.04246410354971886,0.13568033277988434,0.034873560070991516,-0.031219482421875,-0.7646636962890625,-0.619537353515625
1.34,0.0033726270776242018,0.12420530617237091,0.019565977156162262,-0.0286712646484375,-0.7520751953125,-0.6226959228515625
1.36,0.07008587568998337,0.08223655074834824,-0.010658503510057926,-0.0311737060546875,-0.7452850341796875,-0.649200439453125
1.38,0.12454619258642197,0.11633885651826859,-0.0314098559319973,-0.037261962890625,-0.74468994140625,-0.65869140625
1.4,0.09547778964042664,0.1610964834690094,-0.03471031039953232,-0.0348663330078125,-0.758575439453125,-0.6359710693359375
1.42,0.005389971658587456,0.18634910881519318,-0.024765267968177795,-0.02105712890625,-0.7667236328125,-0.6048736572265625
1.44,-0.04387717694044113,0.18264225125312805,-0.0007233145297504961,-0.01318359375,-0.7675018310546875,-0.60296630859375
1.46,-0.04036073759198189,0.15446573495864868,0.010098440572619438,-0.0089263916015625,-0.7638702392578125,-0.63543701171875
1.48,-0.005409146659076214,0.1271856427192688,-0.012056929059326649,-0.0240936279296875,-0.7673187255859375,-0.6573944091796875
1.5,0.06005428358912468,0.04875502362847328,-0.02641855739057064,-0.0159149169921875,-0.75885009765625,-0.6763458251953125
1.52,0.1018318235874176,0.01266759168356657,-0.03175526484847069,-0.0027618408203125,-0.756378173828125,-0.6732330322265625
1.54,0.12361142039299011,-0.00227913330309093,-0.030309969559311867,-0.0055389404296875,-0.7677001953125,-0.6609649658203125
1.56,0.11873011291027069,0.03491830453276634,-0.022609971463680267,-0.0032196044921875,-0.7708740234375,-0.645416259765625
1.58,0.07807296514511108,0.10693869739770889,-0.016261527314782143,-0.0101470947265625,-0.7707672119140625,-0.6309051513671875
1.6,0.06572148948907852,0.10285021364688873,-0.013515275903046131,-0.00164794921875,-0.7740478515625,-0.6370697021484375
1.62,0.028720594942569733,0.09705357998609543,-0.02787211164832115,-0.0063934326171875,-0.7612762451171875,-0.63323974609375
1.64,-0.004363323096185923,0.07804287225008011,-0.03887496143579483,-0.0139923095703125,-0.7653350830078125,-0.6289825439453125
1.66,-0.027719512581825256,0.031746212393045425,-0.03265594691038132,-0.0098876953125,-0.7657318115234375,-0.63153076171875
1.68,-0.06112966686487198,0.025524534285068512,-0.0347321480512619,-0.0112152099609375,-0.7681884765625,-0.6346588134765625
1.7,-0.0690765380859375,0.0054360441863536835,-0.04857419431209564,-0.0135650634765625,-0.7611236572265625,-0.643829345703125
1.72,-0.05016756430268288,0.03783899173140526,-0.0335363894701004,-0.007568359375,-0.755401611328125,-0.6429595947265625
1.74,-0.03341441601514816,0.10748624801635742,-0.02172367088496685,-0.0007171630859375,-0.755218505859375,-0.6429443359375
1.76,0.016212258487939835,0.059528838843107224,-0.0501241534948349,-0.0073699951171875,-0.75445556640625,-0.6558380126953125
1.78,0.043308325111866,0.039927177131175995,-0.07918243855237961,-0.0153656005859375,-0.75653076171875,-0.659576416015625
1.8,0.01786927878856659,0.031429827213287354,-0.0800895094871521,-0.0113677978515625,-0.7652435302734375,-0.648406982421875
1.82,-0.03526557981967926,0.023630227893590927,-0.059175439178943634,0.0052032470703125,-0.7743682861328125,-0.6303863525390625
1.84,-0.07739891856908798,0.04207608103752136,-0.03668930381536484,0.011627197265625,-0.7688140869140625,-0.6267852783203125
1.86,-0.04936275631189346,0.014094513840973377,-0.03846430033445358,0.0099334716796875,-0.76214599609375,-0.645843505859375
1.88,0.019826168194413185,0.013615677133202553,-0.048336371779441833,0.00115966796875,-0.7593994140625,-0.66961669921875
1.9,0.03713645040988922,0.02695997804403305,-0.05402088910341263,-0.0025177001953125,-0.75909423828125,-0.6607513427734375
1.92,-0.015453258529305458,0.005203017964959145,-0.05180061236023903,0.0049896240234375,-0.7615814208984375,-0.6371612548828125
1.94,-0.10638156533241272,-0.0017622136510908604,-0.052086371928453445,0.011016845703125,-0.766815185546875,-0.61688232421875
1.96,-0.1321370005607605,-0.00771784083917737,-0.05282353237271309,0.0166015625,-0.766082763671875,-0.6240692138671875
1.98,-0.017964087426662445,-0.013700632378458977,-0.05387255176901817,0.0178985595703125,-0.75701904296875,-0.666839599609375
2,0.08763610571622849,-0.007960454560816288,-0.054548464715480804,0.0092010498046875,-0.7531585693359375,-0.6916351318359375
2.02,0.058152783662080765,0.008489624597132206,-0.053764160722494125,0.010406494140625,-0.77435302734375,-0.6590118408203125
2.04,-0.014914234168827534,-0.005754025653004646,0.0013731258222833276,0.0384063720703125,-0.779510498046875,-0.6302337646484375
2.06,-0.024830780923366547,-0.026085130870342255,0.03464373201131821,0.0623931884765625,-0.7520904541015625,-0.63580322265625
2.08,0.02070581167936325,-0.017773404717445374,-0.008333297446370125,0.0179290771484375,-0.7554168701171875,-0.653045654296875
2.1,0.055694688111543655,0.010762366466224194,-0.017167268320918083,-0.0004425048828125,-0.766754150390625,-0.6580657958984375
2.12,0.023321034386754036,0.018388329073786736,-0.006268548313528299,0.0184783935546875,-0.7606353759765625,-0.6392669677734375
2.14,-0.024805214256048203,-0.003870638320222497,0.005282380152493715,0.0240631103515625,-0.757659912109375,-0.6282501220703125
2.16,-0.05754851549863815,-0.025353293865919113,0.009398561902344227,0.0191192626953125,-0.7589569091796875,-0.6294403076171875
2.18,-0.1029820442199707,0.0010809770319610834,-0.004321511369198561,0.0084228515625,-0.7600250244140625,-0.626007080078125
2.2,-0.11357077211141586,0.0430353507399559,-0.018563032150268555,0.005767822265625,-0.763275146484375,-0.635040283203125
2.22,-0.04770520329475403,0.045047104358673096,-0.014881477691233158,0.0141754150390625,-0.7571868896484375,-0.6699981689453125
2.24,0.04138286039233208,0.027407122775912285,-0.008500809781253338,0.0233154296875,-0.7559814453125,-0.704559326171875
2.26,0.07697893679141998,0.011788749136030674,-0.030059898272156715,0.0154266357421875,-0.7527313232421875,-0.697540283203125
2.28,0.05277559533715248,0.00785392802208662,-0.034990474581718445,0.0179443359375,-0.756134033203125,-0.6755828857421875
2.3,0.016746222972869873,0.010439058765769005,-0.027425765991210938,0.0296630859375,-0.757354736328125,-0.6576385498046875
2.32,-0.0075966669246554375,-0.01264149323105812,-0.010014284402132034,0.0322113037109375,-0.76312255859375,-0.65252685546875
2.34,-0.003546265186741948,-0.04759468138217926,0.023018766194581985,0.0338134765625,-0.766998291015625,-0.651031494140625
2.36,0.010159959085285664,-0.03395423665642738,0.03984621539711952,0.0276336669921875,-0.7667388916015625,-0.6489715576171875
2.38,-0.011905928142368793,0.029141373932361603,0.03074486367404461,0.01080322265625,-0.76361083984375,-0.6349334716796875
2.4,0.020740965381264687,0.03604668378829956,0.01751800812780857,0.0096893310546875,-0.75634765625,-0.6430816650390625
2.42,0.07558877021074295,0.013253487646579742,0.024114124476909637,0.0146636962890625,-0.752044677734375,-0.6609954833984375
2.44,0.060810886323451996,0.03243730217218399,0.0020303940400481224,0.004364013671875,-0.7528839111328125,-0.645416259765625
2.46,0.0010932276491075754,0.03332759812474251,-0.02064296044409275,0.00201416015625,-0.7561492919921875,-0.62677001953125
2.48,-0.0514027364552021,0.046240463852882385,-0.026748789474368095,0.0081634521484375,-0.757598876953125,-0.623016357421875
2.5,-0.05902710184454918,0.04006992280483246,-0.009729060344398022,0.01947021484375,-0.7620086669921875,-0.6353759765625
2.52,-0.034807249903678894,0.05125599727034569,0.0054360441863536835,0.0246429443359375,-0.7669525146484375,-0.6522064208984375
2.54,0.000040480048483004794,0.06233927607536316,0.0036972665693610907,0.0190887451171875,-0.764404296875,-0.663543701171875
2.56,0.013741112314164639,0.06534198671579361,0.00999111495912075,0.01873779296875,-0.759979248046875,-0.659149169921875
2.58,0.02406698651611805,0.007759119849652052,0.03339444100856781,0.0330047607421875,-0.7602691650390625,-0.66033935546875
2.6,0.027418307960033417,0.010357566177845001,0.05477509647607803,0.0265350341796875,-0.763458251953125,-0.6574859619140625
2.62,0.04514404386281967,0.024746624752879143,0.028798092156648636,0.0009613037109375,-0.7535858154296875,-0.657562255859375
2.64,0.028292357921600342,0.05000191554427147,-0.026324015110731125,-0.015838623046875,-0.7443695068359375,-0.6519317626953125
2.66,0.0009731190511956811,0.03648211061954498,-0.06275792419910431,-0.0156707763671875,-0.7430267333984375,-0.6439971923828125
2.68,-0.009461678564548492,-0.011413509026169777,-0.05468162149190903,0.0030517578125,-0.753173828125,-0.6468505859375
2.7,0.013016998767852783,-0.0017299894243478775,-0.03141331672668457,0.0177154541015625,-0.760101318359375,-0.6510772705078125
2.72,0.04013010859489441,0.015474030748009682,-0.04343509301543236,0.009429931640625,-0.760833740234375,-0.659423828125
2.74,0.04183080419898033,0.01932149939239025,-0.05903109535574913,0.0054779052734375,-0.75665283203125,-0.6547088623046875
2.76,0.017377391457557678,-0.010687531903386116,-0.08105623722076416,0.006805419921875,-0.7551727294921875,-0.64776611328125
2.78,-0.005354018881917,-0.025856897234916687,-0.0962010994553566,0.010955810546875,-0.7539215087890625,-0.6460418701171875
2.8,0.00939137116074562,-0.017525197938084602,-0.0848805382847786,0.0230865478515625,-0.7561492919921875,-0.6506195068359375
2.82,0.03476650267839432,-0.021873340010643005,-0.07150693982839584,0.0356597900390625,-0.7620391845703125,-0.66082763671875
2.84,0.056768741458654404,-0.017977135255932808,-0.06434570252895355,0.0355224609375,-0.7649383544921875,-0.66070556640625
2.86,0.05416576564311981,-0.03157550469040871,-0.07004140317440033,0.0287322998046875,-0.7639923095703125,-0.65435791015625
2.88,0.03401602432131767,-0.04174158722162247,-0.06552308052778244,0.0362396240234375,-0.76776123046875,-0.64532470703125
2.9,0.041490186005830765,-0.056163936853408813,-0.06048677861690521,0.038055419921875,-0.7682342529296875,-0.6436614990234375
2.92,0.05758020654320717,-0.030306773260235786,-0.052856288850307465,0.040374755859375,-0.7673492431640625,-0.6394195556640625
2.94,0.05050258710980415,-0.02629312314093113,-0.05627632141113281,0.03790283203125,-0.7679290771484375,-0.6351165771484375
2.96,-0.014247112907469273,-0.03338272497057915,-0.05687899515032768,0.0360565185546875,-0.7696533203125,-0.615234375
2.98,-0.06584319472312927,-0.06773243844509125,-0.05386669188737869,0.0431671142578125,-0.7714996337890625,-0.61163330078125
3,-0.05927450954914093,-0.06278109550476074,-0.052500493824481964,0.0391082763671875,-0.7667236328125,-0.6265716552734375
3.02,-0.00869016069918871,-0.06716865301132202,-0.0549338236451149,0.029876708984375,-0.7646026611328125,-0.6549072265625
3.04,0.05757514387369156,-0.09690630435943604,-0.04742610454559326,0.0320892333984375,-0.7619171142578125,-0.6781463623046875
3.06,0.15761785209178925,-0.169180765748024,-0.01224494818598032,0.0419769287109375,-0.768829345703125,-0.697967529296875
3.08,0.2029310166835785,-0.14837561547756195,0.015810389071702957,0.0370635986328125,-0.77069091796875,-0.6828155517578125
3.1,0.16300250589847565,-0.09276189655065536,0.03348126262426376,0.0326995849609375,-0.7714691162109375,-0.656951904296875
3.12,0.046133141964673996,-0.03994262218475342,-0.01107608713209629,0.01824951171875,-0.7611541748046875,-0.6089630126953125
3.14,0.003704190719872713,-0.08484911173582077,-0.07593417912721634,-0.00225830078125,-0.761993408203125,-0.6183929443359375
3.16,0.06163167208433151,-0.14850585162639618,-0.13143418729305267,-0.0012969970703125,-0.752593994140625,-0.6468963623046875
3.18,0.12142603099346161,-0.13960689306259155,-0.14164261519908905,0.0070953369140625,-0.7544403076171875,-0.6532745361328125
3.2,0.12802959978580475,-0.04253813996911049,-0.09105055034160614,0.0306549072265625,-0.777252197265625,-0.6276702880859375
3.22,0.07758241146802902,0.01877342164516449,-0.055451009422540665,0.04534912109375,-0.7905731201171875,-0.6003265380859375
3.24,0.048393364995718,-0.022656576707959175,-0.050887417048215866,0.04327392578125,-0.7834320068359375,-0.6060638427734375
3.26,0.05419665947556496,-0.1051514521241188,-0.07646255195140839,0.0249786376953125,-0.7755584716796875,-0.626556396484375
3.28,0.028116855770349503,-0.1265970915555954,-0.11692022532224655,0.015655517578125,-0.774566650390625,-0.6279449462890625
3.3,0.01612597331404686,-0.09137491881847382,-0.1361226886510849,0.0216217041015625,-0.7723541259765625,-0.6184539794921875
3.32,0.013761884532868862,-0.0429605171084404,-0.155842587351799,0.0269012451171875,-0.771759033203125,-0.6217803955078125
3.34,0.0530746690928936,-0.0928785428404808,-0.1850401610136032,0.029022216796875,-0.7782745361328125,-0.638946533203125
3.36,0.12039831280708313,-0.15492886304855347,-0.2111295461654663,0.0283660888671875,-0.7748565673828125,-0.6539306640625
3.38,0.08376120775938034,-0.12778379023075104,-0.22535216808319092,0.026397705078125,-0.7696990966796875,-0.6391754150390625
3.4,0.08715114742517471,-0.16510267555713654,-0.24529337882995605,0.0405426025390625,-0.7853851318359375,-0.6382598876953125
3.42,0.13472771644592285,-0.15084703266620636,-0.2017994374036789,0.0421905517578125,-0.7840576171875,-0.636871337890625
3.44,0.18164995312690735,-0.07468941807746887,-0.12431689351797104,0.0561370849609375,-0.7970123291015625,-0.6420135498046875
3.46,0.2325914353132248,0.0036184368655085564,-0.08417719602584839,0.056732177734375,-0.7935943603515625,-0.6439666748046875
3.48,0.25956979393959045,0.02178439125418663,-0.12332885712385178,0.0346832275390625,-0.7867431640625,-0.643280029296875
3.5,0.29627853631973267,-0.09046278893947601,-0.20184338092803955,0.0239105224609375,-0.7764129638671875,-0.6581573486328125
3.52,0.33799588680267334,-0.2318449467420578,-0.23432834446430206,0.0306243896484375,-0.775146484375,-0.6520233154296875
3.54,0.3622194528579712,-0.27828115224838257,-0.20816439390182495,0.0434417724609375,-0.7947998046875,-0.6324462890625
3.56,0.3453581929206848,-0.23801974952220917,-0.17415262758731842,0.049560546875,-0.8088226318359375,-0.599700927734375
3.58,0.37400156259536743,-0.15368063747882843,-0.14408047497272491,0.048614501953125,-0.813995361328125,-0.587127685546875
3.6,0.4645026922225952,-0.1622786521911621,-0.12783865630626678,0.043853759765625,-0.811004638671875,-0.5993499755859375
3.62,0.5013073086738586,-0.15692436695098877,-0.1407264918088913,0.046051025390625,-0.8056640625,-0.5823211669921875
3.64,0.5217103362083435,-0.1795806735754013,-0.13512267172336578,0.0446929931640625,-0.8093109130859375,-0.5576629638671875
3.66,0.4513264298439026,-0.14952769875526428,-0.07434267550706863,0.06072998046875,-0.8224334716796875,-0.5203094482421875
3.68,0.3106726408004761,-0.0343763493001461,-0.037153493613004684,0.0661468505859375,-0.8380584716796875,-0.4874420166015625
3.7,0.3227623403072357,0.052017662674188614,-0.06492200493812561,0.0485687255859375,-0.8383941650390625,-0.51080322265625
3.72,0.4170595407485962,0.0051865060813724995,-0.08150364458560944,0.0489654541015625,-0.8277130126953125,-0.5443878173828125
3.74,0.3959555923938751,0.024888304993510246,-0.10123047977685928,0.052520751953125,-0.8321380615234375,-0.5270538330078125
3.76,0.29231736063957214,0.061882007867097855,-0.10531523823738098,0.0552215576171875,-0.8446197509765625,-0.4864654541015625
3.78,0.18093329668045044,0.06369322538375854,-0.07111545652151108,0.0757293701171875,-0.8558349609375,-0.475433349609375
3.8,0.1016874760389328,0.011886486783623695,-0.024521853774785995,0.0869293212890625,-0.8633270263671875,-0.47979736328125
3.82,0.04372590780258179,0.004567587748169899,0.01894679293036461,0.0816192626953125,-0.863311767578125,-0.4960784912109375
3.84,0.11518917232751846,0.03849758952856064,0.0268356092274189,0.072235107421875,-0.8599395751953125,-0.527252197265625
3.86,0.2629442811012268,0.03404318913817406,0.019111908972263336,0.058807373046875,-0.848388671875,-0.55487060546875
3.88,0.38733306527137756,0.055145543068647385,-0.010949320159852505,0.0556182861328125,-0.8462677001953125,-0.5631103515625
3.9,0.5014580488204956,-0.0067226174287498,-0.07846125215291977,0.0458831787109375,-0.8479461669921875,-0.56207275390625
3.92,0.4567587673664093,-0.0699005201458931,-0.08882441371679306,0.042999267578125,-0.8489532470703125,-0.5370941162109375
3.94,0.3145856261253357,-0.134678453207016,-0.06329481303691864,0.0692291259765625,-0.873504638671875,-0.4807891845703125
3.96,0.19074305891990662,-0.1526273638010025,-0.015183214098215103,0.06939697265625,-0.884124755859375,-0.4468536376953125
3.98,0.050339337438344955,-0.10015429556369781,-0.003049852093681693,0.0636749267578125,-0.8790435791015625,-0.4302825927734375
4,-0.10388751327991486,-0.0832139328122139,-0.026076873764395714,0.0444183349609375,-0.87591552734375,-0.4113006591796875
4.02,-0.2729897201061249,-0.09978412091732025,-0.060514744371175766,0.0337982177734375,-0.8656768798828125,-0.4036865234375
4.04,-0.30655887722969055,0.0030916635878384113,-0.1311902403831482,0.0282745361328125,-0.8612213134765625,-0.421875
4.06,-0.08429810404777527,-0.07074687629938126,-0.11216834932565689,0.042816162109375,-0.8554840087890625,-0.5301513671875
4.08,0.11749813705682755,-0.06302663683891296,-0.0393599234521389,0.070068359375,-0.85906982421875,-0.5524444580078125
4.1,0.24142833054065704,-0.012474512681365013,-0.009463010355830193,0.0683746337890625,-0.8785400390625,-0.5536041259765625
4.12,0.24785880744457245,0.002585130510851741,0.023553263396024704,0.0651092529296875,-0.8838043212890625,-0.51605224609375
4.14,0.232949897646904,-0.0033430662006139755,0.07629397511482239,0.0788116455078125,-0.8917999267578125,-0.50616455078125
4.16,0.21247844398021698,-0.0972469225525856,0.1516454517841339,0.087646484375,-0.8931121826171875,-0.5026702880859375
4.18,0.12969407439231873,-0.10948308557271957,0.17399176955223083,0.07305908203125,-0.88983154296875,-0.4728851318359375
4.2,0.09916200488805771,-0.10518714040517807,0.11927765607833862,0.0478515625,-0.876129150390625,-0.47039794921875
4.22,0.1905430555343628,-0.09880433976650238,0.05576020106673241,0.0274810791015625,-0.8625335693359375,-0.494842529296875
4.24,0.2913314402103424,-0.06890929490327835,0.017076987773180008,0.0179290771484375,-0.8647613525390625,-0.5012969970703125
4.26,0.23839633166790009,-0.0033308155834674835,0.0019443739438429475,0.02490234375,-0.8738250732421875,-0.45819091796875
4.28,0.09987279772758484,0.0483907014131546,-0.0010631339391693473,0.039276123046875,-0.884368896484375,-0.4029998779296875
4.3,0.053584929555654526,0.02183659002184868,0.006363356951624155,0.0526885986328125,-0.8877105712890625,-0.4214630126953125
4.32,0.052330583333969116,-0.02412237972021103,0.02094150148332119,0.0552215576171875,-0.8831024169921875,-0.44140625
4.34,0.05878741666674614,-0.03239629045128822,0.009184976108372211,0.041900634765625,-0.8833770751953125,-0.4538116455078125
4.36,0.011607387103140354,-0.014890266582369804,0.025586320087313652,0.036712646484375,-0.8902435302734375,-0.4380340576171875
4.38,-0.11757882684469223,0.021751634776592255,0.02847345359623432,0.0358428955078125,-0.8969879150390625,-0.415374755859375
4.4,-0.1669812649488449,0.06329108774662018,0.008756207302212715,0.0421905517578125,-0.89398193359375,-0.4152679443359375
4.42,-0.029289444908499718,0.020201940089464188,0.015726499259471893,0.04815673828125,-0.878570556640625,-0.4914703369140625
4.44,0.05356708914041519,-0.01919020526111126,0.006963367108255625,0.038177490234375,-0.874847412109375,-0.510467529296875
4.46,0.03363838791847229,-0.04183400049805641,-0.01146757137030363,0.0338134765625,-0.8837738037109375,-0.4719696044921875
4.48,-0.0029052423778921366,-0.0013369068037718534,0.0002697782183531672,0.0414276123046875,-0.8891448974609375,-0.4488525390625
4.5,-0.06499071419239044,0.023027021437883377,-0.001549693406559527,0.04345703125,-0.8930816650390625,-0.443878173828125
4.52,-0.11378808319568634,0.017822140827775,-0.004180630203336477,0.0376739501953125,-0.8914642333984375,-0.4391326904296875
4.54,-0.06553719937801361,0.0052951630204916,-0.002781671704724431,0.04534912109375,-0.8827667236328125,-0.468536376953125
4.56,0.02846067026257515,0.0023105584550648928,0.01702878437936306,0.048248291015625,-0.881195068359375,-0.488525390625
4.58,0.1447177678346634,0.0036221654154360294,0.018979549407958984,0.043548583984375,-0.8849029541015625,-0.5063323974609375
4.6,0.18860933184623718,-0.017614413052797318,0.019689016044139862,0.039947509765625,-0.880859375,-0.4919281005859375
4.62,0.07832463085651398,0.0033662356436252594,0.012772520072758198,0.04034423828125,-0.88885498046875,-0.4423828125
4.64,-0.11292202770709991,0.03476836532354355,-0.0006713828770443797,0.0361328125,-0.8939666748046875,-0.402130126953125
4.66,-0.1967277079820633,-0.00833889003843069,-0.010390322655439377,0.045257568359375,-0.8925628662109375,-0.416412353515625
4.68,-0.14610101282596588,-0.029705431312322617,0.0035143073182553053,0.047119140625,-0.8818359375,-0.45458984375
4.7,-0.04944531247019768,-0.02785133756697178,0.02485554851591587,0.0523223876953125,-0.881805419921875,-0.486328125
4.72,-0.027334950864315033,0.0063798688352108,0.03588156774640083,0.0498504638671875,-0.885772705078125,-0.4734039306640625
4.74,-0.1006416529417038,0.06360267847776413,0.02225896716117859,0.0352935791015625,-0.8873748779296875,-0.4416351318359375
4.76,-0.13471120595932007,0.06433398276567459,0.02466832846403122,0.043975830078125,-0.88525390625,-0.4442596435546875
4.78,-0.09223991632461548,0.022717297077178955,0.06286844611167908,0.0556488037109375,-0.880950927734375,-0.476470947265625
4.8,-0.04679413512349129,-0.016103336587548256,0.05389438942074776,0.0433502197265625,-0.87969970703125,-0.496978759765625
4.82,-0.06525996327400208,-0.03726295009255409,0.024173779413104057,0.026123046875,-0.8698883056640625,-0.4845428466796875
4.84,-0.1674928516149521,0.009762083180248737,0.03844965249300003,0.0316009521484375,-0.880401611328125,-0.452880859375
4.86,-0.2515563368797302,0.0438593327999115,0.06367911398410797,0.03985595703125,-0.891082763671875,-0.44781494140625
4.88,-0.22227540612220764,0.015003450214862823,0.056238237768411636,0.036865234375,-0.88525390625,-0.473968505859375
4.9,-0.14945340156555176,0.0234035924077034,0.047750212252140045,0.0301055908203125,-0.87060546875,-0.499114990234375
4.92,-0.11431432515382767,0.012251073494553566,0.044556282460689545,0.028411865234375,-0.8678131103515625,-0.4977569580078125
4.94,-0.10492242127656937,0.06186310201883316,0.03584987670183182,0.0241241455078125,-0.8702239990234375,-0.485076904296875
4.96,-0.10607743263244629,0.07420072704553604,0.007859786972403526,0.0202789306640625,-0.8648834228515625,-0.4863739013671875
4.98,-0.1320970505475998,0.1114724650979042,-0.017885522916913033,0.0195159912109375,-0.862030029296875,-0.4820098876953125
5,-0.056892309337854385,0.11325598508119583,-0.0247250534594059,0.026947021484375,-0.8610382080078125,-0.5081024169921875
5.02,0.06991969794034958,0.01483274158090353,-0.01918914169073105,0.0367889404296875,-0.8562164306640625,-0.541900634765625
5.04,0.0903080552816391,0.0025811356026679277,-0.011147193610668182,0.03765869140625,-0.8671112060546875,-0.5277099609375
5.06,0.036383841186761856,0.005496231839060783,0.006024602800607681,0.03955078125,-0.87554931640625,-0.4892730712890625
5.08,-0.08009590208530426,0.03214648365974426,0.012825516983866692,0.038116455078125,-0.878570556640625,-0.463104248046875
5.1,-0.1927127242088318,0.008234760724008083,-0.003460511565208435,0.0305938720703125,-0.8687896728515625,-0.453857421875
5.12,-0.22370366752147675,0.012072641402482986,-0.017369935289025307,0.0287628173828125,-0.861785888671875,-0.465850830078125
5.14,-0.12335176020860672,0.026165558025240898,-0.018312161788344383,0.0320281982421875,-0.8551788330078125,-0.5117340087890625
5.16,-0.06251078099012375,0.03358485922217369,-0.020135894417762756,0.028900146484375,-0.852508544921875,-0.513397216796875
5.18,-0.1301787793636322,0.05867103487253189,-0.046849530190229416,0.026763916015625,-0.8589630126953125,-0.4864959716796875
5.2,-0.2685805857181549,0.04295199364423752,-0.04914863780140877,0.033721923828125,-0.857940673828125,-0.463714599609375
5.22,-0.4504539966583252,0.03495372086763382,-0.012385562993586063,0.05133056640625,-0.8656463623046875,-0.4464874267578125
5.24,-0.6247760057449341,0.06914791464805603,0.00720678037032485,0.0536651611328125,-0.86834716796875,-0.444854736328125
5.26,-0.6419017314910889,0.16777248680591583,0.001660214620642364,0.048797607421875,-0.85369873046875,-0.4701385498046875
5.28,-0.4379784166812897,0.11295770853757858,-0.013393569737672806,0.0457916259765625,-0.826171875,-0.5659027099609375
5.3,-0.33013635873794556,0.09662534296512604,0.0015965650090947747,0.0467529296875,-0.8195037841796875,-0.584625244140625
5.32,-0.396266371011734,0.06258641928434372,0.025413481518626213,0.0566253662109375,-0.83819580078125,-0.5456390380859375
5.34,-0.5432544946670532,0.06126974895596504,0.023567643016576767,0.05340576171875,-0.842529296875,-0.5119171142578125
5.36,-0.6570242047309875,0.0972815454006195,0.04026992619037628,0.0511932373046875,-0.831085205078125,-0.5179901123046875
5.38,-0.6423438191413879,0.18824075162410736,0.057128533720970154,0.0546417236328125,-0.822906494140625,-0.5511932373046875
5.4,-0.5326128005981445,0.1951279491186142,0.07302147895097733,0.049896240234375,-0.7995758056640625,-0.5999298095703125
5.42,-0.4076519310474396,0.09120634198188782,0.029284385964274406,0.034820556640625,-0.7900238037109375,-0.6070709228515625
5.44,-0.3950141668319702,0.05299237743020058,-0.02882685512304306,0.0303192138671875,-0.7764739990234375,-0.5927886962890625
5.46,-0.47262319922447205,0.02346298098564148,-0.04254027083516121,0.044891357421875,-0.7795867919921875,-0.5658416748046875
5.48,-0.5357518196105957,0.11314466595649719,-0.009541839361190796,0.059051513671875,-0.79351806640625,-0.5504302978515625
5.5,-0.522867739200592,0.2141711413860321,0.03410976752638817,0.0700836181640625,-0.789093017578125,-0.5991363525390625
5.52,-0.4443422853946686,0.2255556285381317,0.08274228125810623,0.075592041015625,-0.7842559814453125,-0.64202880859375
5.54,-0.4237011969089508,0.1782538890838623,0.0946897566318512,0.0652618408203125,-0.7711029052734375,-0.6539459228515625
5.56,-0.5589860677719116,0.11026445776224136,0.03750423341989517,0.04962158203125,-0.7577362060546875,-0.6388092041015625
5.58,-0.6139816641807556,0.0997186005115509,-0.021284515038132668,0.0573272705078125,-0.7509918212890625,-0.6376190185546875
5.6,-0.3892132639884949,0.07510140538215637,-0.004260258749127388,0.0677032470703125,-0.74407958984375,-0.72662353515625
5.62,-0.20626048743724823,0.117782823741436,0.07862157374620438,0.0766448974609375,-0.743438720703125,-0.7575836181640625
5.64,-0.1939612179994583,0.13125015795230865,0.10211944580078125,0.07916259765625,-0.7547760009765625,-0.7263336181640625
5.66,-0.2603093385696411,0.07920587062835693,0.10213568806648254,0.0720367431640625,-0.746673583984375,-0.6949310302734375
5.68,-0.3326847553253174,0.0391085185110569,0.09854920953512192,0.0704345703125,-0.73834228515625,-0.677276611328125
5.7,-0.2973230183124542,0.0024578312877565622,0.07346329838037491,0.0643463134765625,-0.7314605712890625,-0.7023773193359375
5.72,-0.10856349766254425,-0.03805044665932655,0.060863882303237915,0.0566253662109375,-0.7216644287109375,-0.7468719482421875
5.74,0.09861578792333603,-0.006964965257793665,0.04499543830752373,0.0410308837890625,-0.7137298583984375,-0.7660064697265625
5.76,0.1252780258655548,0.02274339646100998,0.04782770946621895,0.0444183349609375,-0.7156524658203125,-0.729949951171875
5.78,-0.0029052423778921366,0.017474330961704254,0.05523529276251793,0.05523681640625,-0.73046875,-0.664825439453125
5.8,-0.10518127679824829,0.006662163883447647,0.03624642267823219,0.0615386962890625,-0.733001708984375,-0.65350341796875
5.82,-0.06016134098172188,-0.029077723622322083,0.014664962887763977,0.0448760986328125,-0.723541259765625,-0.6858062744140625
5.84,0.008127967827022076,-0.02701324224472046,0.004395014606416225,0.0376129150390625,-0.7168731689453125,-0.7069549560546875
5.86,0.020376112312078476,-0.0035928706638514996,0.0026940538082271814,0.040435791015625,-0.720855712890625,-0.6912078857421875
5.88,0.009318666532635689,0.027585022151470184,0.009644904173910618,0.0534210205078125,-0.720733642578125,-0.6757049560546875
5.9,0.014752847142517567,-0.005096225067973137,0.02575383335351944,0.0587005615234375,-0.7257537841796875,-0.6829071044921875
5.92,-0.008672583848237991,-0.032228775322437286,0.020302342250943184,0.053497314453125,-0.7272796630859375,-0.685821533203125
5.94,-0.03566931560635567,-0.038535941392183304,-0.010733870789408684,0.0473480224609375,-0.7238616943359375,-0.6824798583984375
5.96,-0.048181645572185516,-0.025408420711755753,-0.022964704781770706,0.040496826171875,-0.7226715087890625,-0.6792449951171875
5.98,-0.05968569964170456,0.03393186628818512,-0.03774471580982208,0.045501708984375,-0.723175048828125,-0.6805877685546875
6,-0.01344470214098692,0.01709243468940258,-0.04327716678380966,0.0467529296875,-0.721405029296875,-0.6972808837890625
6.02,-0.022294919937849045,0.007546865846961737,0.010299509391188622,0.0709075927734375,-0.724151611328125,-0.6973724365234375
6.04,-0.05318918451666832,-0.03568476065993309,0.034989140927791595,0.0774993896484375,-0.7398223876953125,-0.6871185302734375
6.06,-0.03810504078865051,-0.01236079540103674,0.04331977665424347,0.0629119873046875,-0.732330322265625,-0.6958770751953125
6.08,-0.010683536529541016,0.013336844742298126,0.03852235898375511,0.0485076904296875,-0.7217559814453125,-0.7035064697265625
6.1,0.009102418087422848,-0.02443157322704792,0.004707669839262962,0.0429229736328125,-0.7168121337890625,-0.6973114013671875
6.12,-0.008792692795395851,-0.008708802983164787,-0.015268434770405293,0.0391387939453125,-0.707916259765625,-0.691986083984375
6.14,-0.0183425210416317,-0.0008737831376492977,0.01938621513545513,0.0610198974609375,-0.7235565185546875,-0.6863555908203125
6.16,-0.011324293911457062,0.036072514951229095,0.04141561686992645,0.0645599365234375,-0.7326812744140625,-0.6856231689453125
6.18,0.014060425572097301,0.02431892231106758,0.034028008580207825,0.05535888671875,-0.72686767578125,-0.691497802734375
6.2,0.03789491951465607,-0.00854421965777874,0.025899240747094154,0.048187255859375,-0.715606689453125,-0.6944732666015625
6.22,0.02003123238682747,-0.009370066225528717,0.025846511125564575,0.0468902587890625,-0.7201995849609375,-0.6848297119140625
6.24,-0.0359654575586319,0.0029915287159383297,0.024871528148651123,0.0455322265625,-0.7227935791015625,-0.66729736328125
6.26,-0.09446551650762558,0.0085439532995224,-0.01215919479727745,0.0380401611328125,-0.72015380859375,-0.6614227294921875
6.28,-0.08110284060239792,0.009696302935481071,-0.03376621752977371,0.0323333740234375,-0.714752197265625,-0.68048095703125
6.3,-0.015139005146920681,0.03819665312767029,-0.0212983638048172,0.0425567626953125,-0.7151031494140625,-0.699615478515625
6.32,0.056241169571876526,0.007669104728847742,-0.006995591334998608,0.053741455078125,-0.717559814453125,-0.7225799560546875
6.34,0.0623488612473011,0.019033079966902733,0.008256332017481327,0.0541534423828125,-0.7227935791015625,-0.70660400390625
6.36,0.026522953063249588,0.008467786945402622,0.009414540603756905,0.054656982421875,-0.7226409912109375,-0.6912689208984375
6.38,-0.0404808484017849,-0.014957644045352936,0.0065527078695595264,0.0567626953125,-0.72308349609375,-0.678680419921875
6.4,-0.06958334147930145,-0.008470715954899788,-0.017416274175047874,0.0517578125,-0.7242584228515625,-0.6800384521484375
6.42,-0.040460873395204544,-0.014158695936203003,-0.01858700066804886,0.047637939453125,-0.7198638916015625,-0.6943817138671875
6.44,-0.01762826181948185,-0.024943966418504715,-0.006199839059263468,0.0557861328125,-0.7163238525390625,-0.695220947265625
6.46,-0.022886939346790314,0.021706627681851387,-0.0012681973166763783,0.059539794921875,-0.720855712890625,-0.68304443359375
6.48,-0.02383529208600521,0.02118704468011856,0.037149231880903244,0.062530517578125,-0.72705078125,-0.6852874755859375
6.5,-0.03508874401450157,0.02321450784802437,0.04790254309773445,0.0708160400390625,-0.72698974609375,-0.6825408935546875
6.52,-0.004887166898697615,-0.015355519950389862,0.02310585230588913,0.0517730712890625,-0.715240478515625,-0.7019805908203125
6.54,-0.0022804648615419865,0.017196297645568848,0.008978847414255142,0.0380096435546875,-0.713470458984375,-0.6972808837890625
6.56,0.01302445586770773,0.016347814351320267,-0.0002412823960185051,0.0461273193359375,-0.716552734375,-0.7004241943359375
6.58,0.002877012826502323,0.027421504259109497,0.02864469401538372,0.05352783203125,-0.7181854248046875,-0.695770263671875
6.6,-0.0507875457406044,0.03864220157265663,0.027833228930830956,0.06036376953125,-0.7209014892578125,-0.6827392578125
6.62,-0.07635468989610672,0.02292102761566639,0.01890604756772518,0.0474090576171875,-0.7216644287109375,-0.685272216796875
6.64,-0.05090765655040741,0.02479749172925949,0.0006159891490824521,0.042083740234375,-0.7148284912109375,-0.707122802734375
6.66,0.007221694104373455,-0.03470711410045624,0.0071178306825459,0.05316162109375,-0.714874267578125,-0.7168731689453125
6.68,-0.0049042110331356525,-0.026933345943689346,0.043522708117961884,0.0596771240234375,-0.7169342041015625,-0.702056884765625
6.7,-0.057437192648649216,0.028203142806887627,0.04758163541555405,0.053070068359375,-0.7242431640625,-0.6807708740234375
6.72,-0.06513532996177673,0.03953276202082634,0.041915226727724075,0.0467987060546875,-0.7154388427734375,-0.6901397705078125
6.74,-0.03755003958940506,0.010222277604043484,0.02702575922012329,0.0403900146484375,-0.706329345703125,-0.70465087890625
6.76,-0.01013998594135046,-0.024811340495944023,-0.0035830168053507805,0.0333709716796875,-0.70721435546875,-0.712188720703125
6.78,0.010774084366858006,-0.019943080842494965,-0.006687996443361044,0.039031982421875,-0.7072601318359375,-0.709686279296875
6.8,-0.0006285060080699623,0.024022245779633522,0.021196098998188972,0.047149658203125,-0.7146759033203125,-0.68939208984375
6.82,-0.017193101346492767,0.051061585545539856,0.02269093133509159,0.0468597412109375,-0.7186279296875,-0.687347412109375
6.84,0.008941829204559326,0.00032330775866284966,0.01636352762579918,0.0397186279296875,-0.7144622802734375,-0.7019195556640625
6.86,0.016519321128726006,-0.021333517506718636,0.003989947959780693,0.0359954833984375,-0.7079010009765625,-0.7045135498046875
6.88,-0.033611755818128586,0.00023196132679004222,-0.02876720018684864,0.028411865234375,-0.709991455078125,-0.688934326171875
6.9,-0.09078662842512131,-0.0016106797847896814,-0.038035798817873,0.0319366455078125,-0.7089691162109375,-0.6713409423828125
6.92,-0.11896873265504837,0.06754682213068008,-0.027873177081346512,0.04937744140625,-0.71380615234375,-0.6768646240234375
6.94,-0.04265185445547104,-0.0006649913266301155,-0.023180952295660973,0.0552520751953125,-0.7131500244140625,-0.723541259765625
6.96,0.03051583096385002,-0.007312241476029158,-0.01913800835609436,0.04644775390625,-0.707611083984375,-0.7315521240234375
6.98,0.04330406337976456,-0.02539750188589096,-0.005589442327618599,0.055389404296875,-0.7129364013671875,-0.7216033935546875
7,-0.041723478585481644,0.008265652693808079,-0.0028304075822234154,0.0573883056640625,-0.7140350341796875,-0.6862030029296875
7.02,-0.07311921566724777,-0.006162554491311312,-0.021158281713724136,0.0550537109375,-0.714874267578125,-0.683258056640625
7.04,-0.04054423049092293,-0.015995744615793228,-0.0011582087026908994,0.053497314453125,-0.70758056640625,-0.708099365234375
7.06,-0.0263607669621706,-0.0030455910600721836,0.014008226804435253,0.0602264404296875,-0.7119903564453125,-0.7069091796875
7.08,0.017070597037672997,0.020113257691264153,0.015046593733131886,0.058868408203125,-0.7133026123046875,-0.7099609375
7.1,0.014622884802520275,0.03050544485449791,0.023184414952993393,0.0544891357421875,-0.705596923828125,-0.7057037353515625
7.12,-0.03515319526195526,0.0148074422031641,0.006749249063432217,0.052520751953125,-0.71112060546875,-0.6950531005859375
7.14,-0.05699377879500389,0.004833637271076441,0.013304620049893856,0.0543365478515625,-0.7098846435546875,-0.696502685546875
7.16,-0.04171815142035484,0.029279857873916626,0.028752019628882408,0.0593109130859375,-0.7090911865234375,-0.7070770263671875
7.18,-0.007733819540590048,0.05095186457037926,0.03269189968705177,0.057769775390625,-0.7107086181640625,-0.717742919921875
7.2,0.02677861787378788,0.017407752573490143,0.03471244126558304,0.052947998046875,-0.70892333984375,-0.725921630859375
7.22,0.03227005526423454,0.004480768460780382,0.03584401682019234,0.0549468994140625,-0.709686279296875,-0.7114715576171875
7.24,0.019524432718753815,0.0166183914989233,0.037648577243089676,0.050567626953125,-0.7066497802734375,-0.7084197998046875
7.26,-0.012513660825788975,-0.0041494714096188545,0.0504746250808239,0.0494384765625,-0.7119140625,-0.7011566162109375
7.28,-0.03533215820789337,-0.007245395798236132,0.05228530988097191,0.0458984375,-0.709136962890625,-0.6939849853515625
7.3,-0.030338997021317482,0.04933718964457512,0.042380478233098984,0.03704833984375,-0.702056884765625,-0.6967926025390625
7.32,0.025677399709820747,0.02762044221162796,0.028602616861462593,0.0330047607421875,-0.700836181640625,-0.7182464599609375
7.34,0.05356229469180107,-0.00315930787473917,0.015863917768001556,0.03302001953125,-0.6977691650390625,-0.7183837890625
7.36,0.0049612028524279594,-0.0258150864392519,-0.0009070726810023189,0.033203125,-0.703125,-0.7014312744140625
7.38,-0.05164508521556854,-0.006499444600194693,0.0018839201657101512,0.03863525390625,-0.711029052734375,-0.6862030029296875
7.4,-0.06563999503850937,-0.0008910936885513365,0.008874451741576195,0.0423431396484375,-0.7083892822265625,-0.694000244140625
7.42,-0.0599360391497612,0.0027473168447613716,0.00917645450681448,0.045440673828125,-0.70660400390625,-0.702239990234375
7.44,-0.020616061985492706,-0.015207182615995407,0.019664248451590538,0.044952392578125,-0.7093658447265625,-0.714324951171875
7.46,0.023544739931821823,0.03210946545004845,0.023924507200717926,0.040802001953125,-0.7047271728515625,-0.7220611572265625
7.48,0.03645308315753937,0.025016935542225838,0.0065404572524130344,0.035125732421875,-0.6990203857421875,-0.722137451171875
7.5,-0.01073839794844389,0.00675244489684701,-0.002578738844022155,0.0429534912109375,-0.6967315673828125,-0.7097625732421875
7.52,-0.029506493359804153,-0.01967436820268631,-0.016745690256357193,0.0446319580078125,-0.7077178955078125,-0.70953369140625
7.54,0.008953015320003033,-0.01004917174577713,-0.001297225710004568,0.049560546875,-0.7059478759765625,-0.7197113037109375
7.56,0.07412616163492203,-0.002210956299677491,0.03916444629430771,0.051055908203125,-0.714019775390625,-0.7286224365234375
7.58,0.0676775798201561,-0.004342284053564072,0.050456516444683075,0.0505218505859375,-0.7132720947265625,-0.7108612060546875
7.6,0.034874625504016876,-0.012679043225944042,0.031383223831653595,0.039093017578125,-0.7079315185546875,-0.688201904296875
7.62,-0.020791297778487206,-0.04918006435036659,-0.0003802994033321738,0.0268707275390625,-0.6996307373046875,-0.68182373046875
7.64,-0.04387504607439041,-0.10535971075296402,-0.02172074094414711,0.0218505859375,-0.701751708984375,-0.6953277587890625
7.66,-0.05339238420128822,-0.12138714641332626,-0.027587153017520905,0.025238037109375,-0.7050323486328125,-0.6988677978515625
7.68,-0.04670838266611099,-0.07380764186382294,-0.03183143213391304,0.024993896484375,-0.7061767578125,-0.702972412109375
7.7,-0.03039572201669216,0.028905151411890984,-0.010965831577777863,0.034423828125,-0.700225830078125,-0.7031402587890625
7.72,-0.02774854004383087,0.06693509221076965,0.002091913018375635,0.03594970703125,-0.705474853515625,-0.70721435546875
7.74,-0.009051818400621414,0.0123645244166255,0.007194263394922018,0.0403289794921875,-0.70751953125,-0.7144622802734375
7.76,0.034393392503261566,-0.03051130287349224,-0.008459264412522316,0.033660888671875,-0.699493408203125,-0.728118896484375
7.78,0.05501744523644447,-0.0294289942830801,-0.03299683332443237,0.0242919921875,-0.699127197265625,-0.7222747802734375
7.8,-0.005131645128130913,0.012620720081031322,-0.04423191025853157,0.0318450927734375,-0.6984710693359375,-0.6976776123046875
7.82,-0.05194122716784477,0.032762739807367325,-0.040049150586128235,0.0361785888671875,-0.7066192626953125,-0.68280029296875
7.84,-0.039743948727846146,0.012300075963139534,-0.012094746343791485,0.054229736328125,-0.707489013671875,-0.7019805908203125
7.86,-0.0007731156656518579,-0.011242534033954144,-0.00743155088275671,0.056488037109375,-0.7086944580078125,-0.7187652587890625
7.88,0.01486443355679512,0.0062309978529810905,-0.00803049560636282,0.0420989990234375,-0.7064971923828125,-0.7189483642578125
7.9,0.004093811381608248,0.014050304889678955,0.004552141297608614,0.0528106689453125,-0.708648681640625,-0.7071380615234375
7.92,-0.009763947688043118,0.021584654226899147,0.002573146251961589,0.047149658203125,-0.7076416015625,-0.7016448974609375
7.94,-0.0029880667570978403,0.008531169965863228,-0.008648881688714027,0.04266357421875,-0.7042083740234375,-0.709320068359375
7.96,-0.0005928196478635073,0.016266588121652603,-0.00005326322207110934,0.0427093505859375,-0.7041778564453125,-0.7117767333984375
7.98,-0.019221631810069084,0.012210593558847904,0.020056799054145813,0.0488433837890625,-0.707794189453125,-0.704193115234375
8,-0.016113722696900368,0.027120035141706467,0.025495240464806557,0.0524139404296875,-0.7086181640625,-0.700714111328125
8.02,0.02226908691227436,0.01441063079982996,0.02082245796918869,0.0402374267578125,-0.7041473388671875,-0.72064208984375
8.04,0.02377323992550373,-0.009721869602799416,-0.0036069853231310844,0.0290679931640625,-0.6956939697265625,-0.722076416015625
8.06,-0.005714611150324345,0.0009574064170010388,-0.03021436184644699,0.0249786376953125,-0.69873046875,-0.705718994140625
8.08,-0.027058515697717667,0.025012142956256866,-0.006928479764610529,0.0417938232421875,-0.7041015625,-0.69952392578125
8.1,-0.004313522018492222,0.03659289702773094,0.022180402651429176,0.0539398193359375,-0.708770751953125,-0.70819091796875
8.12,0.03676120936870575,0.008855543099343777,0.03356621414422989,0.0425872802734375,-0.706573486328125,-0.7203216552734375
8.14,0.048539839684963226,-0.019822973757982254,0.0036125779151916504,0.0303497314453125,-0.701263427734375,-0.7207489013671875
8.16,0.007257912773638964,-0.016635701060295105,-0.015272163785994053,0.02642822265625,-0.69927978515625,-0.7042388916015625
8.18,-0.017301226034760475,0.019631491973996162,-0.020801683887839317,0.0286865234375,-0.7052154541015625,-0.694549560546875
8.2,0.016834907233715057,0.03533269092440605,-0.015280419029295444,0.0348968505859375,-0.701171875,-0.71197509765625
8.22,0.08127860724925995,0.021272530779242516,0.01236399170011282,0.043975830078125,-0.700225830078125,-0.7315216064453125
8.24,0.0711604654788971,0.0009052084642462432,0.02027437835931778,0.0487213134765625,-0.7065582275390625,-0.7270965576171875
8.26,0.022494124248623848,-0.022109828889369965,-0.030470557510852814,0.0322265625,-0.705657958984375,-0.7078399658203125
8.28,0.017642376944422722,-0.03664349764585495,-0.047806404531002045,0.0318145751953125,-0.6999969482421875,-0.70513916015625
8.3,0.02996109426021576,-0.0009470200748182833,-0.0327472947537899,0.0430145263671875,-0.705780029296875,-0.707489013671875
8.32,0.06469430774450302,0.016157930716872215,-0.005880525801330805,0.05145263671875,-0.7130584716796875,-0.7072296142578125
8.34,0.06085323169827461,0.004035221878439188,0.016523316502571106,0.055450439453125,-0.7127532958984375,-0.7022247314453125
8.36,0.04723835363984108,-0.011186075396835804,0.0032533176708966494,0.0460968017578125,-0.7171173095703125,-0.69219970703125
8.38,0.02227041870355606,0.0011640676530078053,-0.005323659162968397,0.034210205078125,-0.70709228515625,-0.689727783203125
8.4,-0.036740705370903015,0.02141687460243702,-0.015800267457962036,0.0347442626953125,-0.708526611328125,-0.683197021484375
8.42,-0.06738276779651642,0.011684352532029152,-0.024776985868811607,0.0397186279296875,-0.710540771484375,-0.6832733154296875
8.44,-0.01260820310562849,0.017733722925186157,-0.018806178122758865,0.0427703857421875,-0.708587646484375,-0.709136962890625
8.46,0.06144871190190315,-0.00037523938226513565,-0.005933789070695639,0.046783447265625,-0.7098541259765625,-0.7328948974609375
8.48,0.05582172051072121,-0.011724034324288368,-0.01218742411583662,0.046539306640625,-0.709991455078125,-0.71759033203125
8.5,-0.018375013023614883,-0.017530523240566254,-0.03447568416595459,0.0376739501953125,-0.7106475830078125,-0.689300537109375
8.52,-0.060209013521671295,-0.010098440572619438,-0.02484995685517788,0.04412841796875,-0.711029052734375,-0.68231201171875
8.54,-0.03516251593828201,0.0015755260828882456,-0.012689430266618729,0.0531768798828125,-0.7121429443359375,-0.6981964111328125
8.56,0.029820213094353676,0.015682289376854897,-0.013193033635616302,0.04669189453125,-0.7129058837890625,-0.715301513671875
8.58,0.08527521789073944,-0.008378837257623672,-0.021095432341098785,0.0408782958984375,-0.7055816650390625,-0.7159271240234375
8.6,0.08352764695882797,0.03278511017560959,-0.03887256607413292,0.037353515625,-0.7028961181640625,-0.702484130859375
8.62,0.07043129205703735,-0.010149572975933552,-0.035538285970687866,0.0412139892578125,-0.70697021484375,-0.701080322265625
8.64,-0.011515242047607899,0.006336991675198078,-0.006836334243416786,0.0599212646484375,-0.7170562744140625,-0.68505859375
8.66,-0.05476924031972885,0.022495722398161888,0.009052351117134094,0.0551605224609375,-0.72674560546875,-0.686614990234375
8.68,-0.009051285684108734,0.0013177321525290608,0.007837682962417603,0.046417236328125,-0.7132720947265625,-0.7088165283203125
8.7,0.007957525551319122,-0.007109042257070541,-0.00860360823571682,0.04534912109375,-0.7037811279296875,-0.7168731689453125
8.72,0.003469033632427454,-0.013980530202388763,-0.013734720647335052,0.0440673828125,-0.7090301513671875,-0.706787109375
8.74,-0.007593204732984304,0.024285364896059036,0.002816559048369527,0.0526580810546875,-0.712066650390625,-0.6997222900390625
8.76,0.020128704607486725,0.016832776367664337,0.031687356531620026,0.0623931884765625,-0.720123291015625,-0.7108917236328125
8.78,0.04331152141094208,-0.015157381072640419,0.034631479531526566,0.054351806640625,-0.716888427734375,-0.714569091796875
8.8,0.017195498570799828,-0.03905738890171051,-0.00458596320822835,0.0359344482421875,-0.70947265625,-0.699615478515625
8.82,-0.022098910063505173,0.0075995963998138905,-0.015931561589241028,0.0310211181640625,-0.705963134765625,-0.678741455078125
8.84,-0.022338328883051872,0.042090993374586105,-0.006301305256783962,0.0411834716796875,-0.71197509765625,-0.6889495849609375
8.86,-0.003084473079070449,0.016472715884447098,0.011056113056838512,0.0467376708984375,-0.7126922607421875,-0.7068328857421875
8.88,0.01369290892034769,-0.012336826883256435,0.024532772600650787,0.0528564453125,-0.7115478515625,-0.7127532958984375
8.9,0.005323925521224737,0.004040281753987074,0.00347489258274436,0.04046630859375,-0.7093353271484375,-0.7061309814453125
8.92,-0.000737695605494082,0.0194847509264946,-0.016214922070503235,0.0331268310546875,-0.7064056396484375,-0.700775146484375
8.94,0.004511128645390272,0.01631372608244419,-0.009159144014120102,0.043914794921875,-0.707244873046875,-0.7029876708984375
8.96,0.024092553183436394,-0.012629508972167969,0.008349542506039143,0.0518798828125,-0.717803955078125,-0.713531494140625
8.98,0.03111743927001953,-0.0293741337954998,0.01149739883840084,0.050323486328125,-0.7161712646484375,-0.7046966552734375
9,0.01757925935089588,-0.011725098825991154,0.007314638234674931,0.044525146484375,-0.7146148681640625,-0.6912384033203125
9.02,0.0013201289111748338,0.005660548806190491,-0.007798800710588694,0.0370025634765625,-0.709259033203125,-0.6864013671875
9.04,-0.015600797720253468,0.00070493872044608,-0.025420937687158585,0.034393310546875,-0.7096099853515625,-0.68231201171875
9.06,-0.02702176384627819,-0.008827846497297287,-0.042395658791065216,0.0345916748046875,-0.70574951171875,-0.6877288818359375
9.08,-0.033782463520765305,-0.005035238806158304,-0.03573136404156685,0.0428009033203125,-0.71380615234375,-0.6905364990234375
9.1,-0.013855361379683018,0.014435132034122944,-0.016452742740511894,0.04931640625,-0.7159423828125,-0.696502685546875
9.12,0.00318966805934906,0.025774072855710983,-0.0021784657146781683,0.0508880615234375,-0.7120819091796875,-0.70965576171875
9.14,-0.02015453577041626,0.0023992417845875025,0.002320412313565612,0.0481109619140625,-0.7162933349609375,-0.70928955078125
9.16,-0.039144739508628845,-0.019845077767968178,-0.0013108078856021166,0.0515899658203125,-0.7144775390625,-0.7005157470703125
9.18,-0.02064695581793785,-0.02178039588034153,-0.005615541245788336,0.046875,-0.710418701171875,-0.7071990966796875
9.2,0.015018098056316376,0.0065015750005841255,-0.007278419099748135,0.0489501953125,-0.708953857421875,-0.7150421142578125
9.22,0.03140399605035782,-0.003979561384767294,-0.004947886802256107,0.0477142333984375,-0.7135467529296875,-0.710205078125
9.24,0.005846703890711069,-0.015500662848353386,-0.006028064992278814,0.0458984375,-0.7101898193359375,-0.694488525390625
9.26,-0.045950181782245636,-0.003540672594681382,0.01980086974799633,0.051361083984375,-0.7164459228515625,-0.6781768798828125
9.28,-0.05089753493666649,0.034875690937042236,0.03574814274907112,0.0616455078125,-0.717681884765625,-0.6849365234375
9.3,0.0023092268966138363,0.03382933512330055,0.03551565110683441,0.0447845458984375,-0.71221923828125,-0.7153472900390625
9.32,0.026973826810717583,-0.0027798074297606945,0.012480105273425579,0.0368194580078125,-0.705322265625,-0.7197265625
9.34,-0.030858580023050308,-0.013776266016066074,-0.017917215824127197,0.0322418212890625,-0.7023468017578125,-0.69757080078125
9.36,-0.07447023689746857,0.010753843933343887,-0.015133945271372795,0.0423431396484375,-0.7089385986328125,-0.685699462890625
9.38,-0.03476117551326752,0.038725025951862335,0.022007297724485397,0.0571441650390625,-0.7127685546875,-0.703643798828125
9.4,0.03160666301846504,0.012415923178195953,0.06424849480390549,0.064208984375,-0.7181854248046875,-0.7274017333984375
9.42,0.034445326775312424,-0.008384962566196918,0.04060548171401024,0.051116943359375,-0.7117156982421875,-0.7198028564453125
9.44,-0.013256416656076908,-0.02798183262348175,0.014901984483003616,0.0362396240234375,-0.7022552490234375,-0.697845458984375
9.46,-0.07678825408220291,-0.010613761842250824,-0.0051771849393844604,0.0301513671875,-0.7028961181640625,-0.6822509765625
9.48,-0.06567434966564178,0.02984791062772274,0.006924485322088003,0.0362548828125,-0.70819091796875,-0.6930084228515625
9.5,-0.018070347607135773,0.053693320602178574,0.022275477647781372,0.046722412109375,-0.705718994140625,-0.7189178466796875
9.52,0.027753600850701332,0.012892096303403378,0.019243735820055008,0.04248046875,-0.7053680419921875,-0.729034423828125
9.54,0.022294919937849045,-0.017666345462203026,0.0046328348107635975,0.040557861328125,-0.703033447265625,-0.7190093994140625
9.56,0.000859934720210731,-0.019830696284770966,0.005664543714374304,0.0421600341796875,-0.705810546875,-0.7109222412109375
9.58,0.004206729121506214,-0.0034288198221474886,0.015224759466946125,0.0440216064453125,-0.7121124267578125,-0.7096099853515625
9.6,0.02564224600791931,-0.004593153949826956,0.015358716249465942,0.040435791015625,-0.7100677490234375,-0.7146453857421875
9.62,0.019088473170995712,-0.02160249650478363,0.010523214936256409,0.0361328125,-0.7080230712890625,-0.70263671875
9.64,-0.017779529094696045,-0.007895207032561302,0.012881443835794926,0.037445068359375,-0.705810546875,-0.6830291748046875
9.66,-0.0294303260743618,0.016349146142601967,0.0104739461094141,0.0388641357421875,-0.7082672119140625,-0.6852874755859375
9.68,-0.0020327907986938953,0.027109913527965546,-0.005320996046066284,0.034423828125,-0.7077789306640625,-0.70269775390625
9.7,0.021809957921504974,-0.0022801985032856464,-0.020141754299402237,0.0305938720703125,-0.7049560546875,-0.710723876953125
9.72,-0.01806022599339485,-0.02508378215134144,-0.012059326283633709,0.03826904296875,-0.703765869140625,-0.698577880859375
9.74,-0.08127381652593613,0.002585396869108081,-0.0038107172586023808,0.0482330322265625,-0.711181640625,-0.68646240234375
9.76,-0.05636846646666527,0.015977900475263596,0.017906296998262405,0.0450439453125,-0.7168121337890625,-0.705780029296875
9.78,-0.03569994121789932,0.016707073897123337,0.026396719738841057,0.0460052490234375,-0.7082977294921875,-0.719940185546875
9.8,-0.050152648240327835,-0.01503966934978962,-0.0028935244772583246,0.0394287109375,-0.7040557861328125,-0.708892822265625
9.82,-0.06114031746983528,-0.031687889248132706,-0.011935755610466003,0.042572021484375,-0.6979522705078125,-0.707275390625
9.84,-0.032525718212127686,-0.016161393374204636,-0.012379970401525497,0.0442047119140625,-0.703460693359375,-0.7138671875
9.86,-0.0025624935515224934,0.004655738361179829,0.01330142468214035,0.045440673828125,-0.706451416015625,-0.7171478271484375
9.88,0.01581651344895363,0.021625665947794914,0.040041424334049225,0.0557403564453125,-0.707427978515625,-0.71551513671875
9.9,0.02257242053747177,0.014651646837592125,0.03305196017026901,0.04522705078125,-0.70709228515625,-0.7100982666015625
9.92,0.00586800929158926,-0.00037151097785681486,0.015212242491543293,0.0332794189453125,-0.69940185546875,-0.7083587646484375
9.94,-0.03726614639163017,0.018796058371663094,-0.007725830189883709,0.0302276611328125,-0.6968841552734375,-0.695831298828125
9.96,-0.04117247089743614,0.020012324675917625,-0.01619468256831169,0.03302001953125,-0.700958251953125,-0.7081298828125
9.98,-0.009676862508058548,-0.0008058725506998599,0.014256433583796024,0.04840087890625,-0.7061309814453125,-0.7201995849609375
10,-0.0002759034978225827,0.01895824447274208,0.03575267270207405,0.05255126953125,-0.7078704833984375,-0.7235565185546875
10.02,0.013101687654852867,0.010086189955472946,0.047083623707294464,0.04840087890625,-0.706390380859375,-0.7186737060546875
10.04,0.013118731789290905,-0.0157075896859169,0.03488900884985924,0.0351104736328125,-0.702239990234375,-0.7139129638671875
10.06,-0.009771403856575489,-0.017307350412011147,0.012166384607553482,0.02777099609375,-0.6991729736328125,-0.7081756591796875
10.08,-0.01888873614370823,0.00818043202161789,0.008292551152408123,0.0280609130859375,-0.698577880859375,-0.7018585205078125
10.1,-0.012766661122441292,0.05018407478928566,0.010185525752604008,0.0333404541015625,-0.699066162109375,-0.7065277099609375
10.12,0.004588892683386803,0.043899014592170715,-0.003326021833345294,0.0316009521484375,-0.69488525390625,-0.72003173828125
10.14,0.01793239451944828,-0.004191549029201269,0.002492984989657998,0.03863525390625,-0.6995697021484375,-0.7267608642578125
10.16,0.007926899008452892,-0.021991051733493805,0.007528223562985659,0.0449981689453125,-0.7017974853515625,-0.7203521728515625
10.18,0.002885801251977682,-0.004446147475391626,0.01242178212851286,0.0371246337890625,-0.7068328857421875,-0.7081146240234375
10.2,0.013066267594695091,0.008649414405226707,0.0139568280428648,0.0353546142578125,-0.7017364501953125,-0.7061920166015625
10.22,-0.008196677081286907,0.029443908482789993,0.006388390902429819,0.0307769775390625,-0.700897216796875,-0.70513916015625
10.24,-0.012414857745170593,-0.01944240741431713,-0.006874417886137962,0.030792236328125,-0.7005157470703125,-0.708251953125
10.26,-0.0025686188600957394,0.005250954534858465,-0.0009110674145631492,0.0358123779296875,-0.6990203857421875,-0.7119903564453125
10.28,0.012679842300713062,0.029500899836421013,0.0015656723408028483,0.0328216552734375,-0.70635986328125,-0.716583251953125
10.3,0.01417334284633398,0.010646785609424114,0.005285309627652168,0.0377655029296875,-0.7015533447265625,-0.7133026123046875
10.32,0.017529726028442383,-0.010030263103544712,-0.00040426786290481687,0.0379180908203125,-0.6974945068359375,-0.712799072265625
10.34,-0.0008412926108576357,0.02185230143368244,-0.00863263662904501,0.0363006591796875,-0.6995086669921875,-0.70721435546875
10.36,-0.007623298559337854,0.015473764389753342,-0.012985573150217533,0.039520263671875,-0.7038116455078125,-0.7093963623046875
10.38,-0.0014413028256967664,-0.002895655110478401,0.0009270463488064706,0.049896240234375,-0.7057037353515625,-0.7152252197265625
10.4,0.03967257961630821,-0.019400063902139664,0.013412744738161564,0.044219970703125,-0.7089080810546875,-0.718017578125
10.42,0.030839405953884125,0.013608486391603947,0.023442475125193596,0.043975830078125,-0.7032928466796875,-0.7098541259765625
10.44,-0.01666659489274025,0.029285717755556107,0.0029859361238777637,0.0359954833984375,-0.6992950439453125,-0.6907196044921875
10.46,-0.04046007618308067,0.004579572007060051,-0.0002426139690214768,0.035675048828125,-0.70050048828125,-0.6929473876953125
10.48,-0.013398363254964352,0.0013728595804423094,0.0018698053900152445,0.039154052734375,-0.7058563232421875,-0.7107696533203125
10.5,0.018006430938839912,0.019302058964967728,0.014517157338559628,0.0416107177734375,-0.7036285400390625,-0.7238006591796875
10.52,0.010209227912127972,0.011636416427791119,0.01751055009663105,0.0396575927734375,-0.7026824951171875,-0.7142486572265625
10.54,-0.014997857622802258,0.007525027729570866,0.0009337042574770749,0.0332183837890625,-0.699462890625,-0.7060394287109375
10.56,-0.00024341292737517506,0.017980331555008888,-0.005209409166127443,0.0330352783203125,-0.7010955810546875,-0.713531494140625
10.58,0.009609484113752842,0.008419317193329334,0.00863210391253233,0.042724609375,-0.70037841796875,-0.71942138671875
10.6,0.00968511775135994,-0.00746031291782856,0.00276116537861526,0.039093017578125,-0.7041473388671875,-0.716827392578125
10.62,0.0011235876008868217,-0.004778243601322174,-0.0008753810543566942,0.0318756103515625,-0.7038726806640625,-0.710205078125
10.64,-0.010222810320556164,-0.0018437063554301858,0.010606837458908558,0.04095458984375,-0.7022857666015625,-0.70355224609375
10.66,-0.014513961970806122,0.027657726779580116,0.01047501154243946,0.0385894775390625,-0.7038726806640625,-0.699066162109375
10.68,0.0015217302134260535,0.023334084078669548,0.005933522712439299,0.031005859375,-0.7065277099609375,-0.7091827392578125
10.7,0.014449778944253922,0.006409962195903063,0.018379805609583855,0.035552978515625,-0.70068359375,-0.7166595458984375
10.72,0.002834402257576585,0.011771438643336296,0.005573463626205921,0.036285400390625,-0.6983184814453125,-0.7122802734375
10.74,-0.021644309163093567,0.017949173226952553,-0.00980496034026146,0.0328826904296875,-0.6974029541015625,-0.70745849609375
10.76,-0.011059841141104698,0.017733989283442497,-0.01519679557532072,0.031341552734375,-0.6998443603515625,-0.71441650390625
10.78,0.01955452561378479,0.00004207794336252846,-0.00936127733439207,0.0413818359375,-0.7006683349609375,-0.7315826416015625
10.8,0.03285142406821251,-0.016208531334996223,0.00646642129868269,0.0437774658203125,-0.7049713134765625,-0.7251739501953125
10.82,0.029921147972345352,-0.0032535837963223457,0.016458867117762566,0.04150390625,-0.7072906494140625,-0.7100372314453125
10.84,0.006090116687119007,0.006946855690330267,-0.005455751903355122,0.0289306640625,-0.703125,-0.696868896484375
10.86,-0.014167483896017075,-0.008370847441256046,-0.008748217485845089,0.029296875,-0.696685791015625,-0.6949920654296875
10.88,-0.021283717826008797,0.013993047177791595,-0.01678430661559105,0.031951904296875,-0.701629638671875,-0.698272705078125
10.9,0.006952181924134493,0.018483934924006462,-0.013742976821959019,0.0339813232421875,-0.70416259765625,-0.7098388671875
10.92,0.008459797129034996,0.00634897593408823,-0.0119485380128026,0.03729248046875,-0.7042694091796875,-0.7097015380859375
10.94,-0.0256331916898489,0.012133361771702766,-0.022494923323392868,0.0364837646484375,-0.703399658203125,-0.6988372802734375
10.96,-0.03397847339510918,0.0324583426117897,-0.016318785026669502,0.044189453125,-0.7027740478515625,-0.7013702392578125
10.98,0.015600531361997128,0.012496883049607277,0.00022370553051587194,0.046905517578125,-0.705291748046875,-0.724517822265625
11,0.03604961186647415,0.0022943131625652313,-0.0026900589000433683,0.04510498046875,-0.70367431640625,-0.734100341796875
11.02,0.012517123483121395,-0.017348896712064743,-0.018971826881170273,0.0383758544921875,-0.703765869140625,-0.7210540771484375
11.04,-0.007178816944360733,-0.015391472727060318,-0.015137141570448875,0.0435638427734375,-0.7015228271484375,-0.7081298828125
11.06,0.016977651044726372,-0.037157222628593445,0.002118544653058052,0.048858642578125,-0.7059783935546875,-0.7149505615234375
11.08,0.05164029076695442,0.0004391552647575736,0.023873906582593918,0.0473175048828125,-0.7056884765625,-0.7140655517578125
11.1,0.011657188646495342,0.01900831237435341,0.019514312967658043,0.040313720703125,-0.70257568359375,-0.695098876953125
11.12,-0.052130844444036484,0.007650729268789291,-0.015586682595312595,0.03173828125,-0.7017669677734375,-0.67999267578125
11.14,-0.04860881343483925,0.011224957183003426,-0.024998826906085014,0.035797119140625,-0.7002410888671875,-0.6955108642578125
11.16,0.0028932581190019846,0.009447031654417515,-0.0026176210958510637,0.043914794921875,-0.70428466796875,-0.720611572265625
11.18,0.005936185829341412,0.01569720357656479,0.023678964003920555,0.0543212890625,-0.707183837890625,-0.71881103515625
11.2,-0.005545766558498144,0.008401473984122276,0.027245735749602318,0.04949951171875,-0.7096405029296875,-0.7090606689453125
11.22,0.0027811392210423946,0.010728011839091778,0.027943484485149384,0.0394744873046875,-0.7034149169921875,-0.7095947265625
11.24,-0.0030189594253897667,0.005570267792791128,0.0015275891637429595,0.03070068359375,-0.699005126953125,-0.7127838134765625
11.26,-0.03068281151354313,-0.0073114424012601376,-0.009828129783272743,0.03118896484375,-0.6994171142578125,-0.7068634033203125
11.28,-0.03099839575588703,0.005687713157385588,-0.0017590179340913892,0.034881591796875,-0.7007904052734375,-0.7088623046875
11.3,-0.009375126101076603,0.02726544253528118,0.007411310914903879,0.0377960205078125,-0.7030181884765625,-0.718719482421875
11.32,0.046907056123018265,0.012269982136785984,0.005274923052638769,0.037994384765625,-0.6983489990234375,-0.7306671142578125
11.34,0.056720804423093796,-0.0019680759869515896,-0.013229252770543098,0.0306549072265625,-0.694488525390625,-0.7282257080078125
11.36,0.006235525477677584,-0.00780519237741828,-0.03125299513339996,0.030853271484375,-0.6981964111328125,-0.7099609375
11.38,-0.018284996971488,-0.01811215840280056,-0.015064969658851624,0.040252685546875,-0.706207275390625,-0.7003021240234375
11.4,0.0004122573300264776,0.002304699504747987,0.011177021078765392,0.046783447265625,-0.70849609375,-0.7091522216796875
11.42,0.023938089609146118,0.0037321539130061865,0.0036216326989233494,0.0396728515625,-0.7029571533203125,-0.712371826171875
11.44,0.017722537741065025,0.001329716295003891,-0.011040400713682175,0.032440185546875,-0.7026519775390625,-0.708404541015625
11.46,0.004785966593772173,0.00185089698061347,-0.004966529086232185,0.0357513427734375,-0.6988067626953125,-0.6995697021484375
11.48,-0.02286483533680439,0.021979866549372673,-0.015619440004229546,0.03814697265625,-0.70263671875,-0.698760986328125
11.5,-0.010991398245096207,0.0024146882351487875,-0.012841230258345604,0.040618896484375,-0.7060546875,-0.707855224609375
11.52,0.0016527577536180615,0.002644518855959177,0.0008341020438820124,0.0443115234375,-0.7040557861328125,-0.7086029052734375
11.54,-0.010566890239715576,0.0032434638123959303,-0.011230284348130226,0.04034423828125,-0.7009735107421875,-0.70831298828125
11.56,-0.027754666283726692,0.014240987598896027,-0.013484117574989796,0.0393829345703125,-0.7027130126953125,-0.705230712890625
11.58,0.0005427522119134665,0.015157647430896759,-0.0046701193787157536,0.0448150634765625,-0.703948974609375,-0.7148895263671875
11.6,0.027882231399416924,0.0044112601317465305,0.0026818031910806894,0.0502777099609375,-0.70208740234375,-0.7241973876953125
11.62,0.014869493432343006,-0.012147743254899979,0.008827580139040947,0.047149658203125,-0.702850341796875,-0.716278076171875
11.64,-0.007760983891785145,-0.02208772487938404,-0.00070493872044608,0.0435791015625,-0.705810546875,-0.70550537109375
11.66,-0.025651300325989723,0.0014117417158558965,0.000580036488827318,0.0428009033203125,-0.702606201171875,-0.6994171142578125
11.68,-0.0067452541552484035,0.022277342155575752,0.002972354181110859,0.0393524169921875,-0.7031402587890625,-0.702667236328125
11.7,0.02810567058622837,0.015380287542939186,0.017611218616366386,0.0407562255859375,-0.701812744140625,-0.7145233154296875
11.72,0.010332798585295677,0.0032690302468836308,0.01079725380986929,0.0402374267578125,-0.7017822265625,-0.714141845703125
11.74,-0.022341525182127953,0.003834685543552041,-0.0060054282657802105,0.036376953125,-0.6982574462890625,-0.701995849609375
11.76,-0.02925003133714199,0.02040274254977703,-0.006870689336210489,0.03692626953125,-0.70257568359375,-0.7071685791015625
11.78,0.013060142286121845,0.03074805811047554,0.008550078608095646,0.0428466796875,-0.7039031982421875,-0.7211456298828125
11.8,0.04409688711166382,-0.004874383565038443,0.0076422072015702724,0.0401153564453125,-0.7012481689453125,-0.728759765625
11.82,0.02022191509604454,-0.020785706117749214,-0.0010615360224619508,0.03826904296875,-0.7015838623046875,-0.712799072265625
11.84,-0.02016598917543888,-0.008949552662670612,0.0015784555580466986,0.0392913818359375,-0.704681396484375,-0.700531005859375
11.86,-0.025292839854955673,0.008530637249350548,0.0001984054979402572,0.0373687744140625,-0.7078857421875,-0.704254150390625
11.88,0.006759102921932936,0.014198643155395985,0.019343869760632515,0.041534423828125,-0.70062255859375,-0.7138214111328125
11.9,0.041486456990242004,0.019178221002221107,0.009395898319780827,0.0382080078125,-0.69921875,-0.721832275390625
11.92,0.010822287760674953,0.00726403808221221,-0.006042978726327419,0.0331878662109375,-0.697540283203125,-0.714080810546875
11.94,-0.032886311411857605,-0.0036732980515807867,-0.020249344408512115,0.0363922119140625,-0.70098876953125,-0.6994781494140625
11.96,-0.016704412177205086,-0.008606270886957645,-0.0011584750609472394,0.04766845703125,-0.70330810546875,-0.7107086181640625
11.98,0.03274143487215042,0.012586365453898907,0.016260195523500443,0.04888916015625,-0.708465576171875,-0.7248992919921875
12,0.05130739510059357,0.010646252892911434,0.006779875606298447,0.0373077392578125,-0.70355224609375,-0.721649169921875
12.02,0.009276589378714561,-0.013261742889881134,0.007183610461652279,0.0366363525390625,-0.7003631591796875,-0.701263427734375
12.04,-0.02154443971812725,-0.010059824213385582,0.0005816344055347145,0.0413818359375,-0.704132080078125,-0.695556640625
12.06,-0.008974320255219936,0.005991579964756966,0.013006879016757011,0.0413360595703125,-0.70465087890625,-0.7093963623046875
12.08,0.00908484123647213,0.00869362335652113,0.008771919645369053,0.0370941162109375,-0.703857421875,-0.7135772705078125
12.1,-0.008959406055510044,-0.002121740486472845,0.0007430219557136297,0.03485107421875,-0.70245361328125,-0.70245361328125
12.12,-0.01828473061323166,0.009038768708705902,-0.012470251880586147,0.0367889404296875,-0.6986846923828125,-0.7003936767578125
12.14,-0.005336175672709942,0.012249208986759186,-0.006578007712960243,0.03948974609375,-0.7025146484375,-0.7111663818359375
12.16,-0.004974518436938524,0.002395247109234333,0.013935523107647896,0.04522705078125,-0.7093963623046875,-0.7105712890625
12.18,-0.041902974247932434,0.009954363107681274,0.017828797921538353,0.045806884765625,-0.7055206298828125,-0.7003326416015625
12.2,-0.06651617586612701,0.0196077898144722,-0.006643521599471569,0.03515625,-0.702056884765625,-0.696380615234375
12.22,0.002671150490641594,-0.004650145769119263,-0.019518041983246803,0.0351715087890625,-0.6981964111328125,-0.7294464111328125
12.24,0.06762272119522095,-0.02209358476102352,0.013459349982440472,0.0455169677734375,-0.70001220703125,-0.7391815185546875
12.26,0.02961568348109722,0.005141232628375292,0.020134296268224716,0.0467376708984375,-0.7057037353515625,-0.7129974365234375
12.28,-0.0374126210808754,-0.008804144337773323,0.005798234138637781,0.039093017578125,-0.708526611328125,-0.68524169921875
12.3,-0.06664613634347916,0.014620487578213215,0.010363691486418247,0.034576416015625,-0.700897216796875,-0.6850433349609375
12.32,-0.03213157132267952,0.042991939932107925,0.007845406420528889,0.037322998046875,-0.698577880859375,-0.7078399658203125
12.34,0.009582053869962692,0.027516579255461693,0.005346295889467001,0.0360260009765625,-0.6967315673828125,-0.7294158935546875
12.36,0.015790946781635284,0.0007531419396400452,-0.0052413675002753735,0.0363922119140625,-0.6990203857421875,-0.72967529296875
12.38,0.007352455053478479,-0.018061824142932892,0.001802693703211844,0.0422821044921875,-0.7028961181640625,-0.7221221923828125
12.4,-0.021876003593206406,0.007481085602194071,0.021314876154065132,0.0483245849609375,-0.7047119140625,-0.7125396728515625
12.42,-0.03484586626291275,0.0035185683518648148,0.03577876836061478,0.0476837158203125,-0.7059326171875,-0.7057342529296875
12.44,-0.005283977836370468,0.002838130807504058,0.023837953805923462,0.0414276123046875,-0.6993560791015625,-0.716278076171875
12.46,0.049969423562288284,-0.023790551349520683,0.004233094397932291,0.02764892578125,-0.693572998046875,-0.7321624755859375
12.48,0.02809981070458889,0.0005387574783526361,0.012673983350396156,0.03179931640625,-0.69781494140625,-0.7113189697265625
12.5,-0.05265761911869049,0.007234210614115,0.020325245335698128,0.0396575927734375,-0.7051849365234375,-0.68499755859375
12.52,-0.06886374950408936,0.020230703055858612,0.007275489624589682,0.0368194580078125,-0.70086669921875,-0.694549560546875
12.54,0.02166401594877243,0.02869955450296402,0.0037497307639569044,0.031158447265625,-0.69512939453125,-0.7339630126953125
12.56,0.07274211198091507,0.00836711935698986,0.009340238757431507,0.0307159423828125,-0.6930694580078125,-0.744354248046875
12.58,0.011825500056147575,-0.027336815372109413,-0.009131180122494698,0.0333709716796875,-0.69476318359375,-0.709564208984375
12.6,-0.0739208310842514,-0.011097125709056854,-0.01697232574224472,0.035552978515625,-0.7012176513671875,-0.68408203125
12.62,-0.06484104692935944,0.032760608941316605,-0.0012934972764924169,0.0401763916015625,-0.7081298828125,-0.700897216796875
12.64,0.04060095548629761,0.013074256479740143,0.02100914530456066,0.0465545654296875,-0.703399658203125,-0.7401123046875
12.66,0.09572918713092804,-0.0313027948141098,0.033076994121074677,0.0395660400390625,-0.6968994140625,-0.74102783203125
12.68,0.01587883196771145,-0.028235632926225662,0.012591425329446793,0.03106689453125,-0.698089599609375,-0.6969146728515625
12.7,-0.0722385123372078,0.02646649442613125,-0.009065133519470692,0.0267791748046875,-0.701019287109375,-0.6712799072265625
12.72,-0.05956559255719185,0.04190217703580856,-0.018612831830978394,0.0308990478515625,-0.7003326416015625,-0.7000732421875
12.74,0.01720402017235756,0.007763913366943598,-0.000284159294096753,0.0353851318359375,-0.69647216796875,-0.7317047119140625
12.76,0.04132160544395447,-0.018568890169262886,0.008470184169709682,0.04150390625,-0.70050048828125,-0.730438232421875
12.78,-0.012367986142635345,0.00033955302205868065,0.0052296495996415615,0.0345001220703125,-0.7044525146484375,-0.70172119140625
12.8,-0.06715773046016693,0.031062578782439232,-0.004363056737929583,0.036285400390625,-0.6996612548828125,-0.687591552734375
12.82,-0.03417741134762764,0.03057335503399372,0.004502073861658573,0.0399627685546875,-0.699432373046875,-0.713958740234375
12.84,0.027217505499720573,0.010819624178111553,0.01738937571644783,0.042694091796875,-0.6997528076171875,-0.7399749755859375
12.86,0.054133277386426926,-0.022128205746412277,0.007047256920486689,0.0384063720703125,-0.6989593505859375,-0.7338714599609375
12.88,0.024285631254315376,0.0034730283077806234,0.008334096521139145,0.0348663330078125,-0.6978302001953125,-0.7093963623046875
12.9,-0.0436667874455452,0.015212775208055973,0.012769591063261032,0.0394134521484375,-0.7023773193359375,-0.6934814453125
12.92,-0.05856877192854881,0.01149553433060646,0.00586641114205122,0.0410614013671875,-0.699371337890625,-0.6958160400390625
12.94,0.012913667596876621,0.011541341431438923,0.009358881041407585,0.0351409912109375,-0.6982269287109375,-0.7322540283203125
12.96,0.060404222458601,0.0037803570739924908,0.026387399062514305,0.0367431640625,-0.6963043212890625,-0.7370758056640625
12.98,0.009412942454218864,0.016956079751253128,0.022115955129265785,0.03216552734375,-0.7000579833984375,-0.70599365234375
13,-0.05880818888545036,0.02857412025332451,-0.008873119950294495,0.0257568359375,-0.6953277587890625,-0.6942291259765625
13.02,-0.04339940473437309,0.012887036427855492,-0.017162475734949112,0.0296478271484375,-0.692474365234375,-0.713470458984375
13.04,0.027186613529920578,0.011144796386361122,0.004857605788856745,0.0375213623046875,-0.696380615234375,-0.739837646484375
13.06,0.04361698403954506,0.0012399677652865648,0.02063204161822796,0.0463409423828125,-0.6997528076171875,-0.73516845703125
13.08,0.016831710934638977,-0.019904999062418938,0.006400641519576311,0.03497314453125,-0.70074462890625,-0.713836669921875
13.1,0.006390787661075592,-0.011422830633819103,0.00498144282028079,0.0317840576171875,-0.69720458984375,-0.706207275390625
13.12,0.025677932426333427,0.01377999410033226,0.00041252365917898715,0.03192138671875,-0.6959991455078125,-0.7144012451171875
13.14,0.018681010231375694,0.019717779010534286,0.007455785758793354,0.03155517578125,-0.7028350830078125,-0.7082977294921875
13.16,-0.0072717610746622086,0.014785337261855602,0.0012596751330420375,0.0356597900390625,-0.700103759765625,-0.7024993896484375
13.18,-0.011745605617761612,0.016618924215435982,0.0006141249323263764,0.03564453125,-0.69659423828125,-0.7104644775390625
13.2,-0.010233729146420956,0.021287178620696068,-0.006763896439224482,0.0358734130859375,-0.6937103271484375,-0.7189788818359375
13.22,0.0017172062071040273,0.010318683460354805,-0.009010805748403072,0.0392913818359375,-0.6968231201171875,-0.7258758544921875
13.24,0.021077055484056473,-0.009344233199954033,-0.005940979812294245,0.0369720458984375,-0.7048492431640625,-0.726165771484375
13.26,0.04652089625597,-0.017665280029177666,0.012563728727400303,0.044097900390625,-0.7049407958984375,-0.7245941162109375
13.28,0.05407575145363808,-0.0005576659459620714,0.01943282037973404,0.041046142578125,-0.7017059326171875,-0.7136383056640625
13.3,0.009947971440851688,0.017550231888890266,0.004995823837816715,0.0307464599609375,-0.6988983154296875,-0.6961669921875
13.32,-0.022967100143432617,0.00692155584692955,0.002922020386904478,0.0324249267578125,-0.6979827880859375,-0.6911468505859375
13.34,-0.005608883686363697,0.007261374965310097,0.00009187905379803851,0.033416748046875,-0.7008514404296875,-0.706390380859375
13.36,0.025980466976761818,0.013039901852607727,0.00031611722079105675,0.027374267578125,-0.7011871337890625,-0.7191009521484375
13.38,-0.008585498668253422,0.025298697873950005,-0.0009432916413061321,0.030181884765625,-0.6994171142578125,-0.7047271728515625
13.4,-0.025946911424398422,0.007860053330659866,-0.0035262915771454573,0.0371856689453125,-0.6999969482421875,-0.7050628662109375
13.42,-0.006339122075587511,0.01870710775256157,-0.006858705077320337,0.034515380859375,-0.7001953125,-0.720977783203125
13.44,0.025301627814769745,0.000892691605258733,-0.01008033100515604,0.0333709716796875,-0.7008209228515625,-0.72662353515625
13.46,0.03217577934265137,-0.006220878101885319,-0.005635248962789774,0.0341339111328125,-0.6970367431640625,-0.7206268310546875
13.48,0.009129316546022892,0.002796585438773036,-0.014405304566025734,0.0324859619140625,-0.7003021240234375,-0.7076416015625
13.5,-0.007940747775137424,0.0065710837952792645,-0.00938870757818222,0.0363311767578125,-0.701080322265625,-0.70208740234375
13.52,0.0049529471434652805,0.006788397673517466,-0.0037265613209456205,0.040771484375,-0.7020111083984375,-0.708221435546875
13.54,0.03261679783463478,-0.01788206212222576,-0.009309878572821617,0.0369415283203125,-0.701385498046875,-0.717498779296875
13.56,0.015895076096057892,-0.000987766426987946,-0.01799684390425682,0.033843994140625,-0.700225830078125,-0.707550048828125
13.58,-0.02857332117855549,0.030855916440486908,-0.004289553500711918,0.0368804931640625,-0.7033843994140625,-0.691558837890625
13.6,-0.05548829212784767,0.03225727379322052,0.010366620495915413,0.0499725341796875,-0.7073516845703125,-0.69482421875
13.62,-0.00595456175506115,0.010035057552158833,0.008129565045237541,0.0443115234375,-0.706329345703125,-0.7224578857421875
13.64,0.05528802424669266,0.0007952199084684253,-0.01047341339290142,0.03125,-0.6950836181640625,-0.7386627197265625
13.66,0.03598782792687416,0.0012860405258834362,-0.01979607529938221,0.0321807861328125,-0.6961212158203125,-0.7225341796875
13.68,-0.02485688030719757,0.01209820806980133,-0.007645136676728725,0.044586181640625,-0.705078125,-0.6984405517578125
13.7,-0.018379006534814835,0.008272577077150345,0.0046488139778375626,0.04754638671875,-0.7071685791015625,-0.7027130126953125
13.72,0.027835892513394356,0.004240285139530897,0.025015870109200478,0.045257568359375,-0.7050018310546875,-0.7246246337890625
13.74,0.03598170354962349,-0.005915945861488581,0.009906958788633347,0.038299560546875,-0.6991119384765625,-0.7197265625
13.76,0.009819074533879757,0.0016884441720321774,-0.013853764161467552,0.0270538330078125,-0.699462890625,-0.703857421875
13.78,0.006108758971095085,-0.001290834159590304,-0.0054512242786586285,0.0334625244140625,-0.702789306640625,-0.701171875
13.8,-0.007271228823810816,0.012480637989938259,0.01823652721941471,0.046142578125,-0.7024383544921875,-0.705169677734375
13.82,-0.020262394100427628,0.03696520999073982,0.005328186322003603,0.038421630859375,-0.7021026611328125,-0.703887939453125
13.84,-0.020552147179841995,0.02021818608045578,-0.009049953892827034,0.0312042236328125,-0.69708251953125,-0.7146759033203125
13.86,0.0007768440991640091,-0.0032344090286642313,-0.008707471191883087,0.04229736328125,-0.6967010498046875,-0.7271728515625
13.88,0.037762291729450226,-0.01888527348637581,0.00019201391842216253,0.04638671875,-0.70135498046875,-0.7350616455078125
13.9,0.04566655308008194,0.003489539958536625,-0.007328220177441835,0.03466796875,-0.7029266357421875,-0.7216796875
13.92,0.021507157012820244,0.010371680371463299,0.0021260015200823545,0.0360565185546875,-0.704315185546875,-0.701019287109375
13.94,-0.04368196800351143,0.003394465195015073,0.009766876697540283,0.0441436767578125,-0.704010009765625,-0.6865234375
13.96,-0.041858233511447906,0.01038446370512247,-0.0024517059791833162,0.0395965576171875,-0.7047119140625,-0.697906494140625
13.98,0.017976604402065277,0.025484587997198105,0.006277336739003658,0.0375823974609375,-0.7030029296875,-0.7217559814453125
14,0.03609595075249672,0.0029758161399513483,0.005121524911373854,0.039703369140625,-0.69989013671875,-0.7208099365234375
14.02,-0.005832322873175144,-0.0008833705214783549,0.00017070861940737814,0.04034423828125,-0.703399658203125,-0.702423095703125
14.04,-0.029856432229280472,0.02082858234643936,-0.002633600030094385,0.0392608642578125,-0.705047607421875,-0.6978607177734375
14.06,0.01079885195940733,0.020371850579977036,-0.0038213697262108326,0.037200927734375,-0.701690673828125,-0.7174224853515625
14.08,0.03747120872139931,-0.011934157460927963,0.009729859419167042,0.045745849609375,-0.69970703125,-0.7260284423828125
14.1,0.013996242545545101,-0.036249350756406784,0.0035401401109993458,0.0444793701171875,-0.7058868408203125,-0.7131500244140625
14.12,-0.015241270884871483,-0.012826848775148392,-0.004945756401866674,0.03533935546875,-0.7033233642578125,-0.7002105712890625
14.14,-0.01293577253818512,0.011286210268735886,-0.006719155237078667,0.034271240234375,-0.699066162109375,-0.6988677978515625
14.16,0.009295230731368065,0.022940203547477722,0.009038768708705902,0.040679931640625,-0.702911376953125,-0.7095184326171875
14.18,0.020076505839824677,-0.018266621977090836,0.011937619186937809,0.046783447265625,-0.701934814453125,-0.7175750732421875
14.2,0.0004665858286898583,-0.011023356579244137,-0.0013544837711378932,0.0363311767578125,-0.7086639404296875,-0.7079010009765625
14.22,-0.014669490046799183,-0.011780226603150368,0.0010684601729735732,0.0364990234375,-0.70416259765625,-0.7029876708984375
14.24,-0.03736255317926407,0.006110356654971838,0.012089685536921024,0.0435638427734375,-0.7032623291015625,-0.6998748779296875
14.26,-0.019946809858083725,0.03193023428320885,0.016692694276571274,0.0413055419921875,-0.703826904296875,-0.707275390625
14.28,0.037144437432289124,0.021755361929535866,0.01738857664167881,0.036956787109375,-0.7006072998046875,-0.7271881103515625
14.3,0.02237721160054207,-0.00133850472047925,0.0010058758780360222,0.0347747802734375,-0.697540283203125,-0.722503662109375
14.32,-0.03554894030094147,0.008680040948092937,-0.00443975580856204,0.0376129150390625,-0.700531005859375,-0.7033538818359375
14.34,-0.03729810193181038,0.00010519486386328936,0.018605375662446022,0.0461273193359375,-0.7070770263671875,-0.7087860107421875
14.36,-0.01563674956560135,0.014738732017576694,0.04279034212231636,0.0456085205078125,-0.7076416015625,-0.7150726318359375
14.38,0.023990288376808167,0.013219133019447327,0.025656361132860184,0.0376129150390625,-0.7046051025390625,-0.7165679931640625
14.4,0.048839446157217026,-0.0015877765836194158,0.0015986956423148513,0.016387939453125,-0.6954498291015625,-0.720306396484375
14.42,0.012880378402769566,0.010118148289620876,-0.004742823541164398,0.0270843505859375,-0.6954193115234375,-0.70458984375
14.44,-0.032461002469062805,0.015180550515651703,0.000291616132017225,0.0323028564453125,-0.700592041015625,-0.696746826171875
14.46,-0.04968286678195,0.022045647725462914,0.009733853861689568,0.037261962890625,-0.701446533203125,-0.7015838623046875
14.48,-0.03188629448413849,0.0292364489287138,0.0023124227300286293,0.0337066650390625,-0.7001190185546875,-0.7178955078125
14.5,0.03699024021625519,0.0036280243657529354,-0.0004748416249640286,0.033966064453125,-0.6980438232421875,-0.738433837890625
14.52,0.08259767293930054,-0.028659608215093613,0.005676794331520796,0.0334320068359375,-0.6982574462890625,-0.736968994140625
14.54,0.032947830855846405,-0.01272591482847929,-0.010232930071651936,0.0312957763671875,-0.7001190185546875,-0.7071380615234375
14.56,-0.024765001609921455,0.009047291241586208,-0.012754145078361034,0.0310516357421875,-0.7030792236328125,-0.6888885498046875
14.58,-0.011723767966032028,0.002600310370326042,0.009638778865337372,0.04339599609375,-0.708984375,-0.69952392578125
14.6,0.028450284153223038,-0.004138818476349115,0.008808138780295849,0.037384033203125,-0.702484130859375,-0.7140350341796875
14.62,0.022946594282984734,0.002254632068797946,-0.01782293990254402,0.0284881591796875,-0.699493408203125,-0.7105255126953125
14.64,-0.012034825049340725,-0.006856308318674564,-0.036426182836294174,0.0259246826171875,-0.7022705078125,-0.6959991455078125
14.66,-0.04055248573422432,0.008103200234472752,-0.02840101532638073,0.0360107421875,-0.7018585205078125,-0.6869659423828125
14.68,-0.05229223147034645,0.03934261202812195,-0.016392022371292114,0.0413665771484375,-0.703948974609375,-0.6909942626953125
14.7,-0.0371289923787117,0.030945399776101112,-0.003922303672879934,0.0506439208984375,-0.7064208984375,-0.7061920166015625
14.72,0.013970676809549332,0.0026903252582997084,0.007661914452910423,0.0478363037109375,-0.706298828125,-0.7252960205078125
14.74,0.015045528300106525,-0.0041313618421554565,0.004730306565761566,0.0433502197265625,-0.7025909423828125,-0.7234954833984375
14.76,-0.024441426619887352,0.0027654264122247696,-0.00035499935620464385,0.0452423095703125,-0.701690673828125,-0.703582763671875
14.78,-0.05560094490647316,0.028017252683639526,-0.0004990763845853508,0.0437469482421875,-0.7019195556640625,-0.700286865234375
14.8,-0.01697312481701374,0.011683021672070026,-0.0021848573815077543,0.0483245849609375,-0.703125,-0.719482421875
14.82,0.02943059243261814,-0.002243446884676814,0.02044934779405594,0.053009033203125,-0.702880859375,-0.7320098876953125
14.84,0.02274126559495926,-0.000027696874894900247,0.019243469461798668,0.0469818115234375,-0.70318603515625,-0.7215423583984375
14.86,-0.020134296268224716,0.004199538845568895,0.021817680448293686,0.043548583984375,-0.7019500732421875,-0.7022857666015625
14.88,-0.045401569455862045,0.002543052425608039,0.02221023105084896,0.04534912109375,-0.704559326171875,-0.7000274658203125
14.9,-0.009367136284708977,0.016892431303858757,0.028962675482034683,0.0458984375,-0.7013092041015625,-0.7144317626953125
14.92,0.043584760278463364,0.015311578288674355,0.041011348366737366,0.037872314453125,-0.70062255859375,-0.73095703125
14.94,0.020732974633574486,0.005377721041440964,0.03074592910706997,0.03717041015625,-0.69915771484375,-0.7187347412109375
14.96,-0.009759952314198017,0.0021462414879351854,0.02255723997950554,0.0320587158203125,-0.7024688720703125,-0.705474853515625
14.98,-0.02280225232243538,0.013081447221338749,0.013483584858477116,0.031005859375,-0.6935272216796875,-0.7035980224609375
15,-0.008763398043811321,0.014301974326372147,0.02027224749326706,0.03570556640625,-0.6993408203125,-0.717803955078125
15.02,0.014845791272819042,0.0020362529903650284,0.033357955515384674,0.0376739501953125,-0.702392578125,-0.7213287353515625
15.04,0.02485315129160881,-0.00872291810810566,0.032717201858758926,0.0310516357421875,-0.699310302734375,-0.7198333740234375
15.06,0.005291700828820467,-0.011405520141124725,0.009723201394081116,0.023773193359375,-0.696563720703125,-0.70751953125
15.08,-0.005142830312252045,-0.006135124247521162,0.003434146288782358,0.018707275390625,-0.6960296630859375,-0.7055206298828125
15.1,-0.010101635940372944,0.022050440311431885,0.002493251347914338,0.0211029052734375,-0.696990966796875,-0.7090301513671875
15.12,-0.007131945341825485,0.002163019496947527,-0.0027779433876276016,0.0187530517578125,-0.6983489990234375,-0.7158355712890625
15.14,-0.003924700431525707,-0.014480405487120152,-0.015140070579946041,0.0255279541015625,-0.6916351318359375,-0.7190399169921875
15.16,0.01264149323105812,-0.009577792137861252,-0.028873993083834648,0.0215606689453125,-0.6944122314453125,-0.726715087890625
15.18,0.022790798917412758,-0.0025446503423154354,-0.03236885741353035,0.0272216796875,-0.694671630859375,-0.7261810302734375
15.2,0.025537317618727684,-0.010941064916551113,-0.031198132783174515,0.0345306396484375,-0.699981689453125,-0.7185516357421875
15.22,0.023006515577435493,-0.02671443484723568,-0.022601716220378876,0.0357513427734375,-0.7026824951171875,-0.7141571044921875
15.24,0.013175989501178265,-0.029378928244113922,-0.025683792307972908,0.03729248046875,-0.7032012939453125,-0.7064971923828125
15.26,-0.0008386294357478619,-0.0012397015234455466,-0.028922993689775467,0.03228759765625,-0.7015380859375,-0.6955413818359375
15.28,-0.00872238539159298,0.015894809737801552,-0.02365472912788391,0.040771484375,-0.7063446044921875,-0.700469970703125
15.3,0.00714712543413043,0.00848429836332798,-0.003349191276356578,0.049346923828125,-0.7068023681640625,-0.7067108154296875
15.32,0.011981029063463211,-0.0059724049642682076,0.010644388385117054,0.0560302734375,-0.7049407958984375,-0.7117767333984375
15.34,0.008461395278573036,0.010144513100385666,0.0019797938875854015,0.041717529296875,-0.7052764892578125,-0.70770263671875
15.36,0.0043622576631605625,0.021073859184980392,-0.008854477666318417,0.031219482421875,-0.7006988525390625,-0.707427978515625
15.38,-0.018752915784716606,-0.0011105381418019533,-0.00851359311491251,0.0358428955078125,-0.70013427734375,-0.7069244384765625
15.4,-0.03557077795267105,-0.0021462414879351854,-0.004035487771034241,0.0437164306640625,-0.7046356201171875,-0.7002716064453125
15.42,0.006170277949422598,0.01025902945548296,0.0020852552261203527,0.0387420654296875,-0.7042694091796875,-0.7141265869140625
15.44,0.05199156329035759,0.004917260725051165,0.006345247384160757,0.028656005859375,-0.700836181640625,-0.7214202880859375
15.46,0.026041187345981598,0.012693424709141254,0.00714606000110507,0.0289306640625,-0.6963348388671875,-0.704193115234375
15.48,-0.020140688866376877,0.024893099442124367,-0.005190767347812653,0.0290374755859375,-0.6983795166015625,-0.6948699951171875
15.5,-0.036968670785427094,0.006413424387574196,-0.012652412056922913,0.027374267578125,-0.697845458984375,-0.7027740478515625
15.52,-0.014972824603319168,-0.004367051646113396,-0.021691447123885155,0.0276641845703125,-0.6982574462890625,-0.7146148681640625
15.54,0.016874320805072784,0.006168679799884558,-0.009665942750871181,0.033966064453125,-0.702117919921875,-0.724090576171875
15.56,0.022286929190158844,-0.003573163179680705,-0.00529702752828598,0.0388031005859375,-0.7006683349609375,-0.7192840576171875
15.58,0.004269579891115427,0.018442923203110695,-0.028561603277921677,0.0318145751953125,-0.699951171875,-0.7100677490234375
15.6,0.00034194986801594496,0.033356890082359314,-0.02869556099176407,0.0350494384765625,-0.69830322265625,-0.70703125
15.62,0.0076115806587040424,0.019210712984204292,-0.01082867942750454,0.0488739013671875,-0.7037811279296875,-0.724456787109375
15.64,0.006938333623111248,-0.017493240535259247,-0.012916597537696362,0.048370361328125,-0.7077178955078125,-0.7295989990234375
15.66,0.03544667363166809,-0.023272300139069557,-0.012048407457768917,0.044525146484375,-0.7027435302734375,-0.7232513427734375
15.68,0.05360037833452225,0.02546141855418682,0.004151601810008287,0.0485992431640625,-0.7036895751953125,-0.7220001220703125
15.7,0.05873734876513481,0.022159630432724953,0.016936106607317924,0.05145263671875,-0.706878662109375,-0.7173004150390625
15.72,0.06294434517621994,-0.02250823751091957,0.014452708885073662,0.0477294921875,-0.70721435546875,-0.7066650390625
15.74,0.05506591498851776,-0.012193016707897186,0.008945291861891747,0.039154052734375,-0.7021331787109375,-0.70281982421875
15.76,0.019905798137187958,0.022229405120015144,0.014799718745052814,0.0400390625,-0.7079315185546875,-0.6954803466796875
15.78,-0.015895608812570572,0.030013825744390488,0.023271234706044197,0.0384674072265625,-0.7112884521484375,-0.68853759765625
15.8,-0.004643221385776997,0.02135508880019188,0.02388402819633484,0.0384674072265625,-0.7048797607421875,-0.703155517578125
15.82,0.02262541837990284,0.02533971145749092,0.011991681531071663,0.0310516357421875,-0.697479248046875,-0.717987060546875
15.84,0.06199759244918823,0.002380067016929388,-0.02015107497572899,0.0290069580078125,-0.6970672607421875,-0.72869873046875
15.86,0.12283963710069656,-0.007918909192085266,-0.013374927453696728,0.0330047607421875,-0.700103759765625,-0.728973388671875
15.88,0.15731345117092133,0.01937849074602127,0.007437409833073616,0.0416107177734375,-0.70867919921875,-0.7212677001953125
15.9,0.15935556590557098,0.042088065296411514,0.025525866076350212,0.0422515869140625,-0.7144012451171875,-0.707550048828125
15.92,0.13122805953025818,-0.018435200676321983,0.035652801394462585,0.0413360595703125,-0.7124481201171875,-0.6974334716796875
15.94,0.08885104209184647,-0.00765818590298295,0.013522200286388397,0.03143310546875,-0.7160186767578125,-0.6754608154296875
15.96,0.10948734730482101,0.04409422352910042,-0.00541314110159874,0.0277862548828125,-0.712646484375,-0.6865081787109375
15.98,0.19331566989421844,0.0649598240852356,0.01600826159119606,0.04107666015625,-0.712554931640625,-0.711883544921875
16,0.2893391251564026,0.049853045493364334,0.016995495185256004,0.0413055419921875,-0.716033935546875,-0.7204132080078125
16.02,0.41249969601631165,0.09955135732889175,0.004261057823896408,0.035675048828125,-0.7196502685546875,-0.7264251708984375
16.04,0.5747463703155518,0.022910907864570618,0.033955302089452744,0.043212890625,-0.7248992919921875,-0.74871826171875
16.06,0.6096113920211792,0.022656310349702835,0.06812099367380142,0.058624267578125,-0.736236572265625,-0.7187347412109375
16.08,0.609163224697113,-0.03291480615735054,0.08392978459596634,0.0550384521484375,-0.7493438720703125,-0.7003936767578125
16.1,0.5736390352249146,-0.026342924684286118,0.0871836394071579,0.0458221435546875,-0.74755859375,-0.6592254638671875
16.12,0.5130388140678406,0.01901496946811676,0.04152959957718849,0.027862548828125,-0.751556396484375,-0.630828857421875
16.14,0.4891659617424011,0.020710870623588562,0.018211228772997856,0.0253143310546875,-0.754364013671875,-0.6298065185546875
16.16,0.44294068217277527,0.012281167320907116,0.046658050268888474,0.04327392578125,-0.7643890380859375,-0.6138763427734375
16.18,0.40213972330093384,0.09702428430318832,0.07213038951158524,0.043853759765625,-0.781097412109375,-0.587158203125
16.2,0.34231632947921753,0.13925829529762268,0.061531536281108856,0.0270843505859375,-0.784912109375,-0.5833740234375
16.22,0.2191925346851349,0.10306486487388611,0.03170999139547348,0.0254669189453125,-0.7777557373046875,-0.577239990234375
16.24,0.16534821689128876,0.025970080867409706,0.002814961364492774,0.031463623046875,-0.7832183837890625,-0.5760040283203125
16.26,0.24373410642147064,-0.010441722348332405,0.009372995235025883,0.034759521484375,-0.786285400390625,-0.62200927734375
16.28,0.2801850438117981,-0.009271262213587761,0.030232736840844154,0.0309906005859375,-0.79058837890625,-0.6324920654296875
16.3,0.2479751855134964,0.043952811509370804,-0.01980033703148365,0.0213775634765625,-0.7919769287109375,-0.612762451171875
16.32,0.28686267137527466,-0.0016327840276062489,-0.03778519481420517,0.0185546875,-0.79473876953125,-0.6195526123046875
16.34,0.3674267530441284,-0.05162670835852623,-0.005696767941117287,0.0380859375,-0.8015899658203125,-0.641265869140625
16.36,0.35972860455513,-0.04825275018811226,0.03305329009890556,0.04364013671875,-0.8078155517578125,-0.6092529296875
16.38,0.2831273078918457,-0.036910880357027054,0.012106464244425297,0.0370635986328125,-0.817169189453125,-0.5675506591796875
16.4,0.22610211372375488,-0.05855678766965866,-0.015928633511066437,0.02362060546875,-0.8114471435546875,-0.558197021484375
16.42,0.13873684406280518,-0.07625642418861389,-0.027896612882614136,0.0171966552734375,-0.8090057373046875,-0.5421142578125
16.44,-0.004513791762292385,-0.026942135766148567,-0.042381543666124344,0.025787353515625,-0.818572998046875,-0.5101318359375
16.46,-0.11347862333059311,0.030345389619469643,-0.03187857195734978,0.0352325439453125,-0.8246917724609375,-0.513214111328125
16.48,-0.028418857604265213,0.038061097264289856,-0.03612444922327995,0.0455474853515625,-0.82177734375,-0.5638275146484375
16.5,0.2056455761194229,-0.07632273435592651,-0.01275760680437088,0.04998779296875,-0.8110198974609375,-0.6333465576171875
16.52,0.3447890877723694,-0.06694121658802032,-0.002541188383474946,0.045501708984375,-0.8135223388671875,-0.63153076171875
16.54,0.2686692774295807,-0.03970427066087723,-0.003433613572269678,0.036865234375,-0.82666015625,-0.5806732177734375
16.56,0.11131933331489563,0.013589312322437763,0.002975017298012972,0.0466156005859375,-0.833526611328125,-0.5220947265625
16.58,0.06036826968193054,-0.03284343332052231,-0.008828379213809967,0.039581298828125,-0.8375396728515625,-0.535980224609375
16.6,0.09233951568603516,-0.060568537563085556,-0.04410168156027794,0.0218963623046875,-0.823486328125,-0.561737060546875
16.62,0.15763942897319794,-0.05811683088541031,-0.11043889075517654,0.004302978515625,-0.808837890625,-0.5722503662109375
16.64,0.21774616837501526,-0.05829499661922455,-0.16608192026615143,0.0023956298828125,-0.8147430419921875,-0.5823516845703125
16.66,0.29851266741752625,-0.1053469255566597,-0.14756548404693604,0.0188446044921875,-0.82452392578125,-0.590728759765625
16.68,0.2981315553188324,-0.1311521679162979,-0.06857799738645554,0.0500335693359375,-0.842498779296875,-0.5645904541015625
16.7,0.25347620248794556,-0.061712365597486496,-0.04483884572982788,0.053680419921875,-0.849395751953125,-0.532745361328125
16.72,0.3296029269695282,-0.1057669073343277,-0.04526521638035774,0.0487060546875,-0.8453521728515625,-0.5556488037109375
16.74,0.4844556152820587,-0.12991459667682648,-0.06413557380437851,0.025726318359375,-0.8343353271484375,-0.596710205078125
16.76,0.5136063098907471,-0.13684679567813873,-0.0684909075498581,0.0259552001953125,-0.828826904296875,-0.5635528564453125
16.78,0.38150420784950256,-0.07156579941511154,-0.11230283975601196,0.0266876220703125,-0.852386474609375,-0.4833831787109375
16.8,0.3046291470527649,-0.07269364595413208,-0.08170631527900696,0.0430145263671875,-0.8703460693359375,-0.476837158203125
16.82,0.30602917075157166,-0.0695125013589859,0.019930565729737282,0.077606201171875,-0.8788604736328125,-0.4676055908203125
16.84,0.24141767621040344,-0.02809847891330719,0.11278992891311646,0.08172607421875,-0.8872833251953125,-0.4485015869140625
16.86,0.015853265300393105,0.011503790505230427,0.12097089737653732,0.0621337890625,-0.8740692138671875,-0.405029296875
16.88,-0.2821864187717438,-0.020201940089464188,0.05143203213810921,0.030853271484375,-0.8664093017578125,-0.3736419677734375
16.9,-0.37495896220207214,-0.05367095023393631,-0.06293795257806778,0.023101806640625,-0.856658935546875,-0.419921875
16.92,-0.13504357635974884,-0.18715018033981323,-0.12188302725553513,0.0301666259765625,-0.8394927978515625,-0.540618896484375
16.94,0.03736654669046402,-0.10368724912405014,-0.04284067451953888,0.0469207763671875,-0.839447021484375,-0.5750274658203125
16.96,0.07941573113203049,-0.025737054646015167,0.0473795011639595,0.060028076171875,-0.87945556640625,-0.54913330078125
16.98,0.004549211822450161,0.030401581898331642,0.09033682197332382,0.035675048828125,-0.90167236328125,-0.5055694580078125
17,-0.1345578134059906,0.07082144170999527,0.0964953824877739,0.0357513427734375,-0.8755340576171875,-0.476318359375
17.02,-0.17973168194293976,0.01447081845253706,0.08473805338144302,0.0250701904296875,-0.86016845703125,-0.4990234375
17.04,-0.10955605655908585,-0.01853826455771923,0.04181801900267601,0.0086822509765625,-0.848175048828125,-0.53594970703125
17.06,0.046965379267930984,-0.008717857301235199,0.02202194556593895,-0.0018310546875,-0.8444671630859375,-0.5628509521484375
17.08,0.09832390397787094,0.06905017048120499,0.03572097793221474,0.0056304931640625,-0.8501434326171875,-0.548858642578125
17.1,-0.0010016148444265127,0.08880922943353653,0.022484270855784416,0.0152740478515625,-0.8613128662109375,-0.50830078125
17.12,0.000907338981050998,0.0012040151050314307,0.016568057239055634,0.0207977294921875,-0.8596954345703125,-0.510223388671875
17.14,0.08473698794841766,-0.06252089887857437,0.02671177126467228,0.027069091796875,-0.84954833984375,-0.53887939453125
17.16,0.08238621801137924,-0.015292669646441936,-0.00036245622322894633,0.0130615234375,-0.8545379638671875,-0.5189971923828125
17.18,-0.012827647849917412,0.06684587895870209,0.0065042381174862385,0.0146331787109375,-0.8656158447265625,-0.4769287109375
17.2,-0.07463109493255615,0.04970044270157814,0.02076839469373226,0.03564453125,-0.8627471923828125,-0.472869873046875
17.22,-0.06858119368553162,-0.024869130924344063,0.02803882583975792,0.0350799560546875,-0.8590545654296875,-0.4962158203125
17.24,-0.05555114150047302,-0.036914341151714325,0.008440090343356133,0.0242156982421875,-0.853057861328125,-0.5016937255859375
17.26,-0.038248319178819656,0.04502366855740547,-0.00507039250805974,0.01788330078125,-0.857818603515625,-0.5009765625
17.28,-0.038847796618938446,0.08408185094594955,0.004297010600566864,0.0238189697265625,-0.859771728515625,-0.5057220458984375
17.3,-0.058341071009635925,0.04556162655353546,0.016590693965554237,0.0380706787109375,-0.8614501953125,-0.505615234375
17.32,-0.0399993471801281,-0.03792421147227287,0.025465678423643112,0.038665771484375,-0.859161376953125,-0.5233306884765625
17.34,0.01218902226537466,-0.025110146030783653,0.01739070750772953,0.0269775390625,-0.8590087890625,-0.5281829833984375
17.36,0.008779110386967659,0.08554765582084656,0.01062308344990015,0.021270751953125,-0.8603057861328125,-0.51995849609375
17.38,-0.05561266094446182,0.08046048879623413,0.013773336075246334,0.0216064453125,-0.859649658203125,-0.5017242431640625
17.4,-0.09662454575300217,0.0046789078041911125,0.008622516877949238,0.0265960693359375,-0.8533782958984375,-0.49615478515625
17.42,-0.08289674669504166,-0.008011853322386742,0.02239052578806877,0.0306396484375,-0.84979248046875,-0.508453369140625
17.44,-0.05673997849225998,0.025120001286268234,0.03412175178527832,0.0324554443359375,-0.8545684814453125,-0.5153350830078125
17.46,-0.027169302105903625,0.03754311427474022,0.028261732310056686,0.0215911865234375,-0.8564605712890625,-0.5149078369140625
17.48,-0.03310868516564369,0.07552006095647812,0.02273966744542122,0.0131683349609375,-0.8536376953125,-0.51129150390625
17.5,-0.050689276307821274,0.05986147001385689,0.01555286068469286,0.0244293212890625,-0.8495941162109375,-0.5204010009765625
17.52,-0.055215850472450256,0.012280101887881756,0.02564038150012493,0.020904541015625,-0.854736328125,-0.520294189453125
17.54,-0.017978467047214508,0.013992780819535255,0.017308149486780167,0.024658203125,-0.85260009765625,-0.537109375
17.56,0.03665388375520706,0.005172657780349255,0.007433947641402483,0.0162200927734375,-0.84637451171875,-0.5444183349609375
17.58,0.019943879917263985,0.018306834623217583,-0.009623332880437374,0.0152130126953125,-0.85009765625,-0.532379150390625
17.6,-0.02262621559202671,0.03594202175736427,-0.008349808864295483,0.023468017578125,-0.855926513671875,-0.515838623046875
17.62,-0.033657561987638474,0.027215640991926193,0.015660718083381653,0.034210205078125,-0.86199951171875,-0.51580810546875
17.64,0.02521081455051899,-0.0037409423384815454,0.039073098450899124,0.041229248046875,-0.853851318359375,-0.5362701416015625
17.66,0.08868006616830826,-0.05048687756061554,0.04697869345545769,0.0305328369140625,-0.8476715087890625,-0.5423736572265625
17.68,0.061524614691734314,-0.035057585686445236,0.03526824340224266,0.0169219970703125,-0.85174560546875,-0.5183258056640625
17.7,-0.02484063431620598,0.028727518394589424,0.028422320261597633,0.012786865234375,-0.8566436767578125,-0.4864349365234375
17.72,-0.0652458518743515,0.07535813748836517,0.018278339877724648,0.0118560791015625,-0.8524627685546875,-0.48663330078125
17.74,-0.03367673605680466,0.08285839855670929,-0.01931883580982685,0.0085296630859375,-0.844573974609375,-0.522247314453125
17.76,0.03780330345034599,0.0008394283941015601,-0.019578494131565094,0.014129638671875,-0.8433685302734375,-0.5525360107421875
17.78,0.05764199048280716,-0.03548475727438927,0.008854744024574757,0.0306243896484375,-0.8529052734375,-0.542877197265625
17.8,0.02191195636987686,-0.013670272193849087,0.03021622635424137,0.0311737060546875,-0.8614501953125,-0.5156402587890625
17.82,-0.018441325053572655,0.033723875880241394,0.013029249384999275,0.0187835693359375,-0.85595703125,-0.5027008056640625
17.84,-0.05167384818196297,0.023017967119812965,-0.004736698232591152,0.010406494140625,-0.8496551513671875,-0.5093994140625
17.86,-0.06058185547590256,-0.023424632847309113,-0.024774588644504547,0.0102691650390625,-0.8458709716796875,-0.5144500732421875
17.88,-0.011438010260462761,-0.030372286215424538,-0.009740511886775494,0.0188140869140625,-0.8479766845703125,-0.528167724609375
17.9,0.032233837991952896,0.018087124451994896,0.002526541007682681,0.023468017578125,-0.852203369140625,-0.533966064453125
17.92,0.02106267400085926,0.041011348366737366,0.004546548705548048,0.0236968994140625,-0.856353759765625,-0.5229034423828125
17.94,-0.02863164432346821,0.011018296703696251,-0.004337756894528866,0.022308349609375,-0.8534393310546875,-0.51287841796875
17.96,-0.05982471629977226,0.0014048174489289522,-0.02255937084555626,0.0236053466796875,-0.8501434326171875,-0.5147552490234375
17.98,-0.03375929594039917,-0.05130899325013161,-0.013508351519703865,0.0287628173828125,-0.8495025634765625,-0.531829833984375
18,-0.03756335377693176,-0.046968840062618256,0.013572268187999725,0.0362091064453125,-0.8546142578125,-0.5250396728515625
18.02,-0.07257779687643051,0.022946061566472054,0.02731124870479107,0.0354156494140625,-0.8619537353515625,-0.508636474609375
18.04,-0.06489324569702148,0.041123200207948685,0.026436135172843933,0.0275726318359375,-0.8567962646484375,-0.510284423828125
18.06,-0.041619881987571716,0.04700079932808876,0.01912815496325493,0.02069091796875,-0.84869384765625,-0.5213623046875
18.08,-0.026186330243945122,0.022974824532866478,0.0029885992407798767,0.0241241455078125,-0.8408966064453125,-0.5305633544921875
18.1,-0.02364088036119938,-0.006743123754858971,0.006072806194424629,0.02484130859375,-0.8458709716796875,-0.5305633544921875
18.12,-0.03870025649666786,-0.01272671390324831,0.030008498579263687,0.0328216552734375,-0.8543701171875,-0.52447509765625
18.14,-0.04177940636873245,0.04351578652858734,0.0324157290160656,0.0256195068359375,-0.85400390625,-0.520660400390625
18.16,-0.056717339903116226,0.043405529111623764,0.03063647262752056,0.01434326171875,-0.84820556640625,-0.5334625244140625
18.18,-0.07398021966218948,0.006789196282625198,0.01660081371665001,0.015472412109375,-0.84686279296875,-0.532379150390625
18.2,-0.02255990356206894,-0.017659686505794525,0.0021640846971422434,0.0170440673828125,-0.842071533203125,-0.5438232421875
18.22,0.06123859062790871,0.007796936668455601,0.00902598537504673,0.016082763671875,-0.8415374755859375,-0.5602874755859375
18.24,0.05811869725584984,0.022554311901330948,0.007891478948295116,0.01708984375,-0.8482513427734375,-0.5485687255859375
18.26,-0.005007009021937847,-0.008797486312687397,0.018156899139285088,0.017242431640625,-0.8516693115234375,-0.515869140625
18.28,-0.027728300541639328,-0.003340669209137559,0.04050108790397644,0.02471923828125,-0.8488311767578125,-0.511383056640625
18.3,-0.0034879420418292284,0.019627230241894722,0.03590766713023186,0.017059326171875,-0.8433837890625,-0.5271759033203125
18.32,-0.012471850030124187,0.014840198680758476,-0.012312859296798706,-0.0000457763671875,-0.8403472900390625,-0.532073974609375
18.34,-0.01677818037569523,-0.016347547993063927,-0.04180843383073807,-0.0047607421875,-0.8402252197265625,-0.5281982421875
18.36,-0.004055461846292019,0.01206917967647314,-0.02136947028338909,0.013275146484375,-0.8393096923828125,-0.53350830078125
18.38,-0.0008178567513823509,0.045646846294403076,0.012738698162138462,0.0304718017578125,-0.846343994140625,-0.534881591796875
18.4,-0.01392806600779295,0.01649508625268936,0.010624414309859276,0.0300140380859375,-0.852447509765625,-0.537933349609375
18.42,-0.028145883232355118,-0.014576013199985027,-0.005672799423336983,0.0171356201171875,-0.84906005859375,-0.5372467041015625
18.44,-0.013598899357020855,-0.027874773368239403,-0.006072273477911949,0.023101806640625,-0.84576416015625,-0.5426025390625
18.46,0.005843774415552616,-0.012691027484834194,-0.00726377172395587,0.01617431640625,-0.8471221923828125,-0.5339508056640625
18.48,0.03212438151240349,-0.005140699911862612,-0.0028072381392121315,0.0203857421875,-0.8433074951171875,-0.52813720703125
18.5,0.04818510636687279,0.03532496839761734,0.017051953822374344,0.026641845703125,-0.8459625244140625,-0.526275634765625
18.52,0.022225676104426384,0.027845745906233788,0.020084228366613388,0.019500732421875,-0.84967041015625,-0.5296630859375
18.54,-0.05059553310275078,-0.011564244516193867,-0.013777065090835094,0.0089569091796875,-0.846710205078125,-0.512420654296875
18.56,-0.06962248682975769,-0.02305072359740734,-0.02159876935184002,0.014617919921875,-0.8402099609375,-0.5145111083984375
18.58,-0.020316990092396736,0.01721547171473503,-0.006891462020576,0.019256591796875,-0.8438568115234375,-0.534637451171875
18.6,0.014476411044597626,0.0331433042883873,0.0032895365729928017,0.02423095703125,-0.8513336181640625,-0.5428314208984375
18.62,-0.014644189737737179,0.008262723684310913,0.0040943436324596405,0.0203399658203125,-0.847808837890625,-0.53131103515625
18.64,-0.04639679193496704,-0.0020303940400481224,-0.001669003046117723,0.0245361328125,-0.8459625244140625,-0.5204620361328125
18.66,-0.015472966246306896,-0.02292289212346077,-0.0026525084394961596,0.01617431640625,-0.844390869140625,-0.5362396240234375
18.68,0.006719421595335007,0.0005550027708522975,-0.004397145472466946,0.0198974609375,-0.843231201171875,-0.53955078125
18.7,-0.0010077401529997587,0.019779562950134277,0.005824599415063858,0.024566650390625,-0.8438720703125,-0.5339813232421875
18.72,-0.010191651061177254,0.008333830162882805,0.008896555751562119,0.0250701904296875,-0.8481903076171875,-0.5271148681640625
18.74,0.02340226247906685,-0.009355951100587845,0.0220339298248291,0.0281524658203125,-0.8462982177734375,-0.535491943359375
18.76,0.06273475289344788,0.009740511886775494,0.028800755739212036,0.023468017578125,-0.84417724609375,-0.5429229736328125
18.78,0.02087572030723095,0.021529261022806168,0.011848137713968754,0.0162353515625,-0.8404998779296875,-0.5292510986328125
18.8,-0.07928310334682465,0.013436446897685528,-0.026973560452461243,0.013671875,-0.84466552734375,-0.511749267578125
18.82,-0.06336592137813568,-0.013399162329733372,-0.015444203279912472,0.0196533203125,-0.848388671875,-0.524169921875
18.84,0.04782238230109215,0.03653910383582115,0.03524560481309891,0.031982421875,-0.84857177734375,-0.5525665283203125
18.86,0.11480221897363663,0.051903944462537766,0.05065465345978737,0.0337982177734375,-0.8478240966796875,-0.560821533203125
18.88,0.040580183267593384,0.006448578089475632,0.025169800966978073,0.015838623046875,-0.8432464599609375,-0.53216552734375
18.9,-0.05746089667081833,-0.036974530667066574,-0.021164141595363617,0.0043487548828125,-0.8399810791015625,-0.5078582763671875
18.92,-0.058219898492097855,-0.01726953499019146,-0.018877550959587097,0.0114898681640625,-0.8417205810546875,-0.516937255859375
18.94,-0.012379171326756477,0.027753334492444992,0.01061855535954237,0.0225372314453125,-0.84967041015625,-0.534820556640625
18.96,-0.002031459240242839,0.06066334620118141,0.03079892508685589,0.02508544921875,-0.852203369140625,-0.52587890625
18.98,-0.031746476888656616,0.038308773189783096,0.015969645231962204,0.01373291015625,-0.8393096923828125,-0.533050537109375
19,-0.035289548337459564,-0.02460308000445366,-0.01986345276236534,0.009765625,-0.833984375,-0.5418548583984375
19.02,0.007044327445328236,-0.01938381791114807,-0.016564860939979553,0.0126800537109375,-0.840545654296875,-0.555328369140625
19.04,0.03526584431529045,0.017778996378183365,-0.011396997608244419,0.0186004638671875,-0.84771728515625,-0.54913330078125
19.06,0.046964846551418304,0.027779167518019676,-0.0007568703731521964,0.020965576171875,-0.849517822265625,-0.5382537841796875
19.08,0.058578357100486755,-0.007025685161352158,0.004405667539685965,0.0265655517578125,-0.8460540771484375,-0.540985107421875
19.1,0.053216349333524704,-0.032334502786397934,0.016657007858157158,0.02301025390625,-0.8477630615234375,-0.5352630615234375
19.12,0.006551908794790506,-0.02184670977294445,0.010538394562900066,0.0190887451171875,-0.8465423583984375,-0.518646240234375
19.14,-0.028366660699248314,0.012710468843579292,-0.004156128969043493,0.0116424560546875,-0.8421478271484375,-0.5063323974609375
19.16,-0.026445722207427025,0.052015531808137894,-0.011379420757293701,0.012664794921875,-0.84259033203125,-0.51611328125
19.18,0.027818847447633743,0.011236675083637238,-0.01184973493218422,0.0163726806640625,-0.84527587890625,-0.539794921875
19.2,0.038295190781354904,-0.018457038328051567,0.004479703027755022,0.0242767333984375,-0.8434906005859375,-0.5411224365234375
19.22,-0.004238154739141464,-0.01330035924911499,-0.0007499461644329131,0.0230560302734375,-0.8493499755859375,-0.524078369140625
19.24,-0.03533881530165672,0.005979862064123154,-0.00512685114517808,0.0164031982421875,-0.85040283203125,-0.5164337158203125
19.26,-0.019514312967658043,0.02612294629216194,-0.005644570104777813,0.020294189453125,-0.847625732421875,-0.5293426513671875
