timestamp,gyro_x,gyro_y,gyro_z,acc_x,acc_y,acc_z
0,-0.1106407567858696,-0.15211789309978485,0.16753040254116058,0,0,0
0.02,0.008647283539175987,0.09520694613456726,0.0978567898273468,-0.0253448486328125,-0.6529998779296875,-0.8021392822265625
0.04,0.23385457694530487,0.09076052904129028,-0.03455318510532379,-0.0253448486328125,-0.6529998779296875,-0.8021392822265625
0.06,0.2893873453140259,0.03945126757025719,-0.07055538892745972,-0.065093994140625,-0.64654541015625,-0.790740966796875
0.08,0.17241358757019043,0.05247306078672409,0.01290301512926817,-0.0098419189453125,-0.634368896484375,-0.7565460205078125
0.1,-0.07843488454818726,0.1105041429400444,0.1120532974600792,0.0377044677734375,-0.629913330078125,-0.7322845458984375
0.12,-0.026944266632199287,0.07174129784107208,0.15417438745498657,0.0301513671875,-0.6734619140625,-0.7037353515625
0.14,0.13014867901802063,-0.010163954459130764,0.06943260133266449,0.0218963623046875,-0.67608642578125,-0.7492218017578125
0.16,0.17472121119499207,-0.06345194578170776,0.0290572177618742,-0.0374755859375,-0.658050537109375,-0.7794342041015625
0.18,0.08622969686985016,-0.05233484506607056,0.0578710213303566,-0.022796630859375,-0.644866943359375,-0.7565765380859375
0.2,-0.1269901692867279,-0.0671076625585556,0.07288965582847595,0.0260009765625,-0.64508056640625,-0.730499267578125
0.22,-0.16756317019462585,-0.07259830087423325,0.07980002462863922,0.0102691650390625,-0.676483154296875,-0.703277587890625
0.24,-0.03915512561798096,-0.1107451543211937,0.026986343786120415,0.004302978515625,-0.6712188720703125,-0.752288818359375
0.26,0.010805243626236916,-0.07757735252380371,-0.032525453716516495,-0.0213775634765625,-0.6664886474609375,-0.7867431640625
0.28,0.007144195958971977,-0.012984241358935833,-0.053584929555654526,-0.0361785888671875,-0.6752777099609375,-0.768585205078125
0.3,-0.01028619334101677,0.05850352346897125,-0.030066555365920067,-0.0107421875,-0.6566619873046875,-0.7555084228515625
0.32,0.002416286151856184,0.07231361418962479,-0.009140235371887684,0.0072174072265625,-0.656005859375,-0.7433624267578125
0.34,0.05230581387877464,0.05585474520921707,0.004025900736451149,-0.0084228515625,-0.6802520751953125,-0.740509033203125
0.36,0.055276304483413696,0.03909413889050484,-0.002103897277265787,-0.012451171875,-0.6603851318359375,-0.7487945556640625
0.38,0.04364308342337608,0.02587527222931385,0.013767210766673088,-0.0108642578125,-0.6501007080078125,-0.747161865234375
0.4,0.016038887202739716,0.03832395374774933,0.018857311457395554,-0.001220703125,-0.651885986328125,-0.747283935546875
0.42,0.0052381716668605804,0.053882405161857605,-0.0027683558873832226,0.0003509521484375,-0.6567535400390625,-0.7445526123046875
0.44,0.0013379721203818917,0.01212590467184782,0.006828877609223127,-0.005157470703125,-0.666900634765625,-0.7403411865234375
0.46,-0.03292705863714218,-0.02335192821919918,0.00908590666949749,0.000335693359375,-0.6637115478515625,-0.7369384765625
0.48,-0.057567156851291656,-0.021256286650896072,0.01242018397897482,-0.0027313232421875,-0.6673431396484375,-0.742401123046875
0.5,-0.020372116938233376,-0.0046669235453009605,0.016631174832582474,-0.0080718994140625,-0.6573944091796875,-0.7483673095703125
0.52,-0.007773234508931637,0.0032836776226758957,0.023363113403320312,0.0002593994140625,-0.6554107666015625,-0.757720947265625
0.54,-0.03213849663734436,0.01062308344990015,0.05302433669567108,-0.0007171630859375,-0.6522064208984375,-0.7454376220703125
0.56,-0.05100832134485245,0.036373455077409744,0.07246062159538269,-0.0048370361328125,-0.6469879150390625,-0.7353973388671875
0.58,-0.031671907752752304,0.02847318723797798,0.04933585599064827,-0.0087738037109375,-0.651275634765625,-0.74664306640625
0.6,0.04054023697972298,-0.025129055604338646,0.015237542800605297,-0.0088348388671875,-0.6667022705078125,-0.7700347900390625
0.62,0.08529971539974213,-0.07372588664293289,-0.005829659756273031,-0.0034027099609375,-0.661834716796875,-0.7824859619140625
0.64,0.10158202052116394,-0.035413917154073715,-0.0022069616243243217,-0.00787353515625,-0.660980224609375,-0.7804412841796875
0.66,0.05354312062263489,-0.011573831550776958,0.019840283319354057,-0.0029296875,-0.6667327880859375,-0.74078369140625
0.68,0.017552096396684647,-0.006892793346196413,0.036258939653635025,-0.0029296875,-0.6667327880859375,-0.74078369140625
0.7,0.030435670167207718,-0.0037476003635674715,0.033294837921857834,-0.015045166015625,-0.6651611328125,-0.744476318359375
0.72,0.04162121191620827,-0.0031132353469729424,0.013646836392581463,-0.01611328125,-0.66241455078125,-0.7546844482421875
0.74,0.03025670535862446,0.010393785312771797,-0.0037180392537266016,-0.0129852294921875,-0.658050537109375,-0.756103515625
0.76,0.03458034619688988,0.022960443049669266,-0.0004324973560869694,-0.0099029541015625,-0.6612548828125,-0.74090576171875
0.78,0.0202189851552248,0.017355553805828094,0.004473844077438116,-0.0041656494140625,-0.6613311767578125,-0.7318115234375
0.8,-0.025726135820150375,0.007507450878620148,0.03039199486374855,-0.00537109375,-0.664520263671875,-0.7273712158203125
0.82,-0.08072414249181747,0.009896839037537575,0.0381963886320591,-0.007171630859375,-0.65826416015625,-0.719696044921875
0.84,-0.09002283215522766,0.02598925679922104,0.04544684290885925,-0.0152740478515625,-0.6521148681640625,-0.721710205078125
0.86,-0.058091796934604645,-0.0006687197601422668,0.04409076273441315,-0.0146026611328125,-0.6582794189453125,-0.7386627197265625
0.88,0.0002479403046891093,-0.006768157705664635,0.020607806742191315,-0.013458251953125,-0.6608428955078125,-0.7609710693359375
0.9,0.04193466529250145,-0.011628692969679832,-0.0027324033435434103,-0.01324462890625,-0.6565399169921875,-0.7752532958984375
0.92,0.03285914659500122,-0.03243037685751915,0.0068062408827245235,-0.009796142578125,-0.6626739501953125,-0.7734375
0.94,0.030041787773370743,-0.03140106424689293,0.003939347807317972,-0.00555419921875,-0.6737213134765625,-0.7646484375
0.96,0.07577971369028091,-0.023003585636615753,-0.013976269401609898,-0.014892578125,-0.6721954345703125,-0.7628631591796875
0.98,0.12765569984912872,-0.007001983001828194,-0.027420705184340477,-0.01416015625,-0.6614837646484375,-0.7645263671875
1,0.1401914656162262,-0.005923669319599867,-0.02371997758746147,-0.0125274658203125,-0.654052734375,-0.7635650634765625
1.02,0.1069440245628357,-0.00012543488992378116,-0.00469568558037281,-0.0155792236328125,-0.6587066650390625,-0.7457122802734375
1.04,0.08085809648036957,-0.015445535071194172,-0.0011624698527157307,-0.015167236328125,-0.6693572998046875,-0.7271575927734375
1.06,0.056527722626924515,-0.02293301187455654,0.002555036684498191,-0.015167236328125,-0.6693572998046875,-0.7271575927734375
1.08,0.047151800245046616,-0.002186721656471491,0.01252005249261856,-0.006927490234375,-0.667724609375,-0.7340850830078125
1.1,0.02942926064133644,0.010277937166392803,0.02563079446554184,-0.0159759521484375,-0.6670684814453125,-0.7332305908203125
1.12,0.028628448024392128,-0.01161404512822628,0.04494883120059967,-0.0156707763671875,-0.6675567626953125,-0.7275543212890625
1.14,0.04777604341506958,-0.046414636075496674,0.02268933318555355,-0.0152130126953125,-0.66436767578125,-0.7332000732421875
1.16,0.09036558121442795,-0.025971679016947746,0.010937602259218693,-0.0170135498046875,-0.66326904296875,-0.7580718994140625
1.18,0.11158911138772964,0.0022088258992880583,0.005041896365582943,-0.009246826171875,-0.6660919189453125,-0.7672882080078125
1.2,0.14120931923389435,0.022216089069843292,0.012829512357711792,-0.0208587646484375,-0.6783294677734375,-0.7606201171875
1.22,0.195890411734581,0.02978772297501564,0.011685417965054512,-0.0276947021484375,-0.68560791015625,-0.750579833984375
1.24,-0.0006138586322776973,-0.10602603852748871,-0.013065202161669731,-0.032196044921875,-0.66790771484375,-0.755950927734375
1.26,-0.16658098995685577,-0.05788673460483551,0.04495682194828987,-0.02301025390625,-0.6685028076171875,-0.723480224609375
1.28,-0.05284563824534416,-0.02647794596850872,0.00998978316783905,0.0136871337890625,-0.7020721435546875,-0.6933746337890625
1.3,0.038655783981084824,0.02846546284854412,-0.022722089663147926,-0.0140838623046875,-0.6932830810546875,-0.7314910888671875
1.32,-0.006833937484771013,0.051594484597444534,0.004094077739864588,-0.0193634033203125,-0.67657470703125,-0.7154388427734375
1.34,-0.04556695371866226,0.06285513192415237,0.007742075715214014,-0.0193634033203125,-0.67657470703125,-0.7154388427734375
1.36,-0.03762700408697128,0.07872118055820465,-0.00589517317712307,-0.01800537109375,-0.6696929931640625,-0.718414306640625
1.38,-0.01703198067843914,0.10170718282461166,-0.004030960611999035,-0.0164337158203125,-0.669097900390625,-0.737884521484375
1.4,-0.027541346848011017,0.0977071151137352,0.012544553726911545,-0.01165771484375,-0.6767425537109375,-0.746337890625
1.42,-0.04078737646341324,0.08936796337366104,0.016586434096097946,-0.014739990234375,-0.684112548828125,-0.73883056640625
1.44,-0.047157127410173416,0.061100639402866364,0.025374066084623337,-0.015899658203125,-0.680572509765625,-0.7440032958984375
1.46,-0.024354076012969017,0.04350593313574791,0.028745627030730247,-0.0110931396484375,-0.6722564697265625,-0.7530975341796875
1.48,0.022942600771784782,0.015082812868058681,0.025725336745381355,-0.0042877197265625,-0.6705322265625,-0.764404296875
1.5,0.056514672935009,0.006608634255826473,0.03707519546151161,-0.0095672607421875,-0.6727294921875,-0.7743988037109375
1.52,0.056291233748197556,0.008295480161905289,0.033356890082359314,-0.0133209228515625,-0.6820068359375,-0.7717437744140625
1.54,0.05642572417855263,0.03911145031452179,0.037747643887996674,-0.0142669677734375,-0.682098388671875,-0.7582550048828125
1.56,0.07952918112277985,0.06659980118274689,0.02972141094505787,-0.01519775390625,-0.6826629638671875,-0.7458038330078125
1.58,0.12770895659923553,0.08361713588237762,0.019775303080677986,-0.0161590576171875,-0.6799468994140625,-0.736541748046875
1.6,0.15658481419086456,0.040649160742759705,0.005917011294513941,-0.01348876953125,-0.6748809814453125,-0.7312469482421875
1.62,0.13933712244033813,0.004881840664893389,-0.011679559014737606,-0.00927734375,-0.6739501953125,-0.7163238525390625
1.64,0.07728946208953857,-0.0005416869535110891,-0.008451808243989944,-0.015960693359375,-0.6727447509765625,-0.7000579833984375
1.66,0.007423295173794031,0.013072924688458443,-0.010322412475943565,-0.010101318359375,-0.677764892578125,-0.6911468505859375
1.68,-0.05591253563761711,-0.0086590014398098,-0.022363362833857536,-0.012176513671875,-0.6806488037109375,-0.69219970703125
1.7,-0.07808255404233932,-0.012899553403258324,-0.023865118622779846,-0.013641357421875,-0.6800994873046875,-0.7024078369140625
1.72,-0.05866224691271782,-0.025590315461158752,-0.022036060690879822,-0.0086669921875,-0.68463134765625,-0.723541259765625
1.74,-0.021580658853054047,-0.01588868536055088,-0.012279835529625416,-0.0084991455078125,-0.685150146484375,-0.74298095703125
1.76,0.015302257612347603,0.005852030124515295,-0.00686136819422245,-0.0081939697265625,-0.684967041015625,-0.75506591796875
1.78,0.034928157925605774,0.02149064466357231,0.007635016459971666,-0.0092010498046875,-0.6820068359375,-0.758331298828125
1.8,0.022755645215511322,0.02479083463549614,0.01497921533882618,-0.009552001953125,-0.678558349609375,-0.752655029296875
1.82,-0.005118861794471741,0.018941467627882957,0.021390242502093315,-0.0129852294921875,-0.680267333984375,-0.741058349609375
1.84,-0.019957195967435837,0.005505286622792482,0.03416595980525017,-0.0130157470703125,-0.6833038330078125,-0.7348785400390625
1.86,-0.014194382354617119,0.021747905761003494,0.040712542831897736,-0.0138397216796875,-0.6873016357421875,-0.7354278564453125
1.88,-0.002041046740487218,0.043835099786520004,0.027643611654639244,-0.0123138427734375,-0.6874542236328125,-0.7411651611328125
1.9,-0.016442889347672462,0.08954000473022461,0.03117975778877735,-0.0101470947265625,-0.6894073486328125,-0.731109619140625
1.92,-0.06221676990389824,0.14653298258781433,0.052260808646678925,-0.0124053955078125,-0.686126708984375,-0.7076416015625
1.94,-0.13683268427848816,0.17991836369037628,0.06283915042877197,-0.010528564453125,-0.6769866943359375,-0.6881103515625
1.96,-0.196898952126503,0.19100190699100494,0.05958716198801994,-0.0157928466796875,-0.673095703125,-0.6792449951171875
1.98,-0.21381108462810516,0.16757062077522278,0.04776352643966675,-0.0169219970703125,-0.6647186279296875,-0.6853790283203125
2,-0.22686830163002014,0.12785223126411438,0.026265425607562065,-0.005767822265625,-0.665924072265625,-0.710906982421875
2.02,-0.22462192177772522,0.06473292410373688,0.015321698039770126,-0.0053253173828125,-0.67279052734375,-0.7263641357421875
2.04,-0.2509605884552002,0.007230216171592474,-0.0026501116808503866,0.0009613037109375,-0.6665191650390625,-0.7447509765625
2.06,-0.29588785767555237,-0.03038533590734005,-0.04406572878360748,0.00091552734375,-0.6614227294921875,-0.75128173828125
2.08,-0.3326927423477173,-0.05356309190392494,-0.10410696268081665,0.005859375,-0.6585845947265625,-0.761199951171875
2.1,-0.40645191073417664,-0.09362449496984482,-0.20243459939956665,0.0033416748046875,-0.6569061279296875,-0.769073486328125
2.12,-0.5292981863021851,-0.14855033159255981,-0.31352996826171875,0.005401611328125,-0.657440185546875,-0.768890380859375
2.14,-0.5984447598457336,-0.14750370383262634,-0.23838433623313904,0.000030517578125,-0.6642913818359375,-0.776702880859375
2.16,-0.43345901370048523,-0.1543714702129364,-0.24250371754169464,0.0170135498046875,-0.629486083984375,-0.7747955322265625
2.18,-0.2877449691295624,-0.18947166204452515,-0.21200838685035706,-0.0169677734375,-0.6360015869140625,-0.80169677734375
2.2,-0.16887956857681274,-0.16439427435398102,-0.16570959985256195,-0.002227783203125,-0.61822509765625,-0.823638916015625
2.22,-0.06362664699554443,-0.17298376560211182,-0.10859625041484833,0.0039825439453125,-0.624603271484375,-0.817901611328125
2.24,-0.013593306764960289,-0.13329574465751648,-0.06215285137295723,0.008331298828125,-0.6257476806640625,-0.8063812255859375
2.26,-0.01654542051255703,-0.0760047510266304,-0.011450260877609253,-0.00213623046875,-0.6163482666015625,-0.7954254150390625
2.28,-0.006620884872972965,-0.018451711162924767,-0.008013451471924782,0.005859375,-0.621368408203125,-0.7826995849609375
2.3,-0.009721603244543076,0.04009202495217323,0.0021616879384964705,-0.0092926025390625,-0.6092529296875,-0.77691650390625
2.32,-0.02195989340543747,0.0813790112733841,0.008480836637318134,-0.0008392333984375,-0.6132965087890625,-0.77252197265625
2.34,-0.02736877277493477,0.10175645351409912,0.01811801828444004,-0.001129150390625,-0.6114501953125,-0.779541015625
2.36,-0.06012512370944023,0.09696489572525024,0.020834442228078842,-0.001129150390625,-0.6114501953125,-0.779541015625
2.38,-0.10901889204978943,0.12630175054073334,0.022764967754483223,-0.0002899169921875,-0.6087799072265625,-0.7876739501953125
2.4,-0.125096395611763,0.152873694896698,0.026992201805114746,-0.00006103515625,-0.6132049560546875,-0.794647216796875
2.42,-0.12554967403411865,0.16726835072040558,0.047564055770635605,0.0101470947265625,-0.612945556640625,-0.7913970947265625
2.44,-0.1320083737373352,0.17424850165843964,0.08238488435745239,0.0107421875,-0.6093902587890625,-0.807525634765625
2.46,-0.12581491470336914,0.14547836780548096,0.09909196197986603,0.0107421875,-0.6093902587890625,-0.807525634765625
2.48,-0.08683422952890396,0.12717126309871674,0.10055670142173767,0.004608154296875,-0.6075286865234375,-0.813995361328125
2.5,-0.08105703443288803,0.09691775590181351,0.12130352109670639,0.0092620849609375,-0.6051483154296875,-0.811553955078125
2.52,-0.05270635336637497,0.11109376698732376,0.11218512803316116,0.015625,-0.601226806640625,-0.7975006103515625
2.54,-0.02773256227374077,0.1295579969882965,0.09614703804254532,0.0154876708984375,-0.600555419921875,-0.795318603515625
2.56,0.0071766865439713,0.13111594319343567,0.07594882696866989,0.0133819580078125,-0.59869384765625,-0.7965850830078125
2.58,0.027126159518957138,0.06769835203886032,0.060977865010499954,0.0095672607421875,-0.598876953125,-0.80426025390625
2.6,0.023015836253762245,-0.010541590861976147,0.0390683077275753,0.012298583984375,-0.5988311767578125,-0.79345703125
2.62,-0.008071241900324821,-0.030306506901979446,0.018447451293468475,0.015472412109375,-0.598724365234375,-0.78887939453125
2.64,-0.034506577998399734,0.0062943813391029835,0.004264253657311201,0.015472412109375,-0.598724365234375,-0.78887939453125
2.66,-0.0374126210808754,0.042566101998090744,-0.011234811507165432,0.0139923095703125,-0.5990142822265625,-0.794952392578125
2.68,-0.019214173778891563,0.06023005023598671,-0.01317918486893177,0.0119476318359375,-0.603790283203125,-0.797698974609375
2.7,0.00600462919101119,0.06770607829093933,-0.009073656052350998,0.010498046875,-0.5963134765625,-0.8018341064453125
2.72,0.013041233643889427,0.03688877448439598,0.003008306724950671,0.014556884765625,-0.6002349853515625,-0.8009185791015625
2.74,-0.011847072280943394,0.019539346918463707,0.007939149625599384,0.0164337158203125,-0.596832275390625,-0.798583984375
2.76,-0.04067632183432579,-0.004465322010219097,0.014479606412351131,0.0163421630859375,-0.6015777587890625,-0.797882080078125
2.78,-0.042092859745025635,-0.01593662239611149,0.008468053303658962,0.0163421630859375,-0.6015777587890625,-0.797882080078125
2.8,-0.02491467073559761,-0.0021339908707886934,0.0012085424968972802,0.0146942138671875,-0.6012420654296875,-0.80853271484375
2.82,-0.014988536946475506,-0.009011871181428432,-0.0037792918737977743,0.016357421875,-0.5932769775390625,-0.807464599609375
2.84,-0.017254354432225227,-0.02233007363975048,0.006469883490353823,0.0205535888671875,-0.591796875,-0.8054656982421875
2.86,-0.04080761596560478,-0.025232652202248573,0.03838760405778885,0.018524169921875,-0.59100341796875,-0.79974365234375
2.88,-0.03991013020277023,-0.018441857770085335,0.05416683107614517,0.0134124755859375,-0.593231201171875,-0.7961883544921875
2.9,-0.022268021479249,-0.019517242908477783,0.05625368654727936,0.0145263671875,-0.5947723388671875,-0.8067474365234375
2.92,-0.007029946427792311,0.01543221902102232,0.05525180324912071,0.008544921875,-0.5976409912109375,-0.811981201171875
2.94,-0.013046559877693653,0.02099689468741417,0.045040179044008255,0.0099639892578125,-0.603851318359375,-0.8087921142578125
2.96,0.020838968455791473,-0.02117479406297207,0.012573848478496075,0.012542724609375,-0.5970916748046875,-0.802490234375
2.98,0.04517839848995209,0.014769092202186584,-0.01509879156947136,0.009429931640625,-0.5879669189453125,-0.813812255859375
3,0.023203855380415916,0.022121280431747437,-0.0189563799649477,0.0054473876953125,-0.5957489013671875,-0.8090362548828125
3.02,0.01062281709164381,0.007656055502593517,-0.02496766857802868,0.014892578125,-0.5914459228515625,-0.7916259765625
3.04,0.02412158064544201,0.01116263959556818,-0.02196948044002056,0.014892578125,-0.5914459228515625,-0.7916259765625
3.06,0.012761068530380726,0.022491194307804108,-0.009883789345622063,0.0145111083984375,-0.5920867919921875,-0.788177490234375
3.08,0.0036967338528484106,0.0310500618070364,0.0014679343439638615,0.015228271484375,-0.5934295654296875,-0.7898101806640625
3.1,-0.016280969604849815,0.04627455398440361,0.021810756996273994,0.0150909423828125,-0.5939788818359375,-0.79449462890625
3.12,-0.03341095522046089,0.03339950367808342,0.04725087061524391,0.0107421875,-0.5958709716796875,-0.803314208984375
3.14,-0.04657335951924324,0.005507683381438255,0.09395312517881393,0.012725830078125,-0.594024658203125,-0.8094940185546875
3.16,-0.0002519350382499397,-0.02070474624633789,0.07052610069513321,0.036041259765625,-0.582855224609375,-0.822998046875
3.18,0.07097004354000092,0.024967135861516,0.0280326995998621,0.010528564453125,-0.595428466796875,-0.8323822021484375
3.2,0.11067138612270355,0.05812961608171463,-0.024434769526124,0.0103607177734375,-0.60394287109375,-0.8360443115234375
3.22,0.08802226930856705,0.08676605671644211,-0.039382826536893845,0.0123138427734375,-0.6063385009765625,-0.8252716064453125
3.24,0.007675762753933668,0.09809380769729614,-0.001680987305007875,0.0068359375,-0.617889404296875,-0.79736328125
3.26,-0.004099403973668814,-0.015245798043906689,0.04562394320964813,0.0033416748046875,-0.62091064453125,-0.7648468017578125
3.28,0.11441206187009811,-0.2189677655696869,0.03182397410273552,0.02008056640625,-0.59466552734375,-0.7685546875
3.3,0.31507059931755066,-0.42220211029052734,-0.053642455488443375,0.02325439453125,-0.5903778076171875,-0.7892608642578125
3.32,0.4450043737888336,-0.40120387077331543,-0.1515572965145111,0.0196380615234375,-0.579010009765625,-0.8073883056640625
3.34,0.20051605999469757,-0.2116621881723404,-0.12721174955368042,0.00341796875,-0.594390869140625,-0.7921905517578125
3.36,-0.2504601776599884,-0.015342471189796925,-0.04647056385874748,-0.0172119140625,-0.614349365234375,-0.707611083984375
3.38,-0.40446439385414124,0.021351894363760948,-0.011064901947975159,0.0019378662109375,-0.6272735595703125,-0.681915283203125
3.4,-0.2308364063501358,-0.009847038425505161,0.005856025032699108,-0.0096282958984375,-0.610382080078125,-0.7734832763671875
3.42,0.004216582980006933,-0.04978113994002342,0.036250948905944824,-0.0018463134765625,-0.5951080322265625,-0.87274169921875
3.44,0.14351961016654968,-0.0019470370607450604,0.026166090741753578,-0.00152587890625,-0.60003662109375,-0.914520263671875
3.46,0.16308186948299408,0.03533615171909332,0.008882973343133926,-0.0054779052734375,-0.60498046875,-0.897064208984375
3.48,0.1151532232761383,0.01378398947417736,0.004905809182673693,-0.000885009765625,-0.6131439208984375,-0.842559814453125
3.5,0.07648039609193802,-0.03196272626519203,0.0011534150689840317,0.00299072265625,-0.6143951416015625,-0.7958526611328125
3.52,0.09209077805280685,-0.09141513705253601,-0.009220129810273647,-0.0030670166015625,-0.6072540283203125,-0.7774810791015625
3.54,0.11986807733774185,-0.1334371566772461,-0.027062511071562767,-0.0060272216796875,-0.6059722900390625,-0.76666259765625
3.56,0.09603971242904663,-0.14273850619792938,-0.03239469230175018,-0.0040283203125,-0.6072540283203125,-0.761138916015625
3.58,0.03278271481394768,-0.1014653742313385,-0.01635873317718506,-0.0059661865234375,-0.6089019775390625,-0.7501983642578125
3.6,-0.024275777861475945,-0.050035469233989716,0.005001150071620941,-0.00738525390625,-0.610260009765625,-0.7484588623046875
3.62,-0.05225148797035217,-0.009602826088666916,0.018764900043606758,-0.0103302001953125,-0.6083831787109375,-0.757965087890625
3.64,-0.0654410570859909,0.038912512362003326,0.020838169381022453,-0.011688232421875,-0.6092376708984375,-0.7735595703125
3.66,-0.06455369293689728,0.07872304320335388,0.02623027190566063,-0.013214111328125,-0.615264892578125,-0.790313720703125
3.68,-0.019176891073584557,0.10130558162927628,0.04796193167567253,-0.01885986328125,-0.6157684326171875,-0.80419921875
3.7,0.06591670215129852,0.15588626265525818,0.06497367471456528,-0.0179443359375,-0.610321044921875,-0.813690185546875
3.72,0.13875629007816315,0.2010958194732666,0.0705905482172966,-0.0084075927734375,-0.6021728515625,-0.8221893310546875
3.74,0.13256922364234924,0.1671471744775772,0.04987781122326851,-0.0085601806640625,-0.60504150390625,-0.815704345703125
3.76,0.0663374811410904,0.09912525117397308,0.025178590789437294,-0.0031585693359375,-0.62115478515625,-0.7857208251953125
3.78,-0.02130981534719467,0.01944640278816223,0.02310159057378769,0.000274658203125,-0.621002197265625,-0.766754150390625
3.8,-0.06398697197437286,-0.020359599962830544,0.02177986316382885,0.005218505859375,-0.6136322021484375,-0.77337646484375
3.82,-0.00749120581895113,-0.06849277764558792,0.01649375632405281,0.0055999755859375,-0.618865966796875,-0.7973785400390625
3.84,0.08409996330738068,-0.08610212802886963,0.024955151602625847,0.00189208984375,-0.62042236328125,-0.8119964599609375
3.86,0.16424086689949036,-0.036375585943460464,0.03530232980847359,-0.0005950927734375,-0.6207122802734375,-0.8288421630859375
3.88,0.19467654824256897,0.044565603137016296,0.03512496501207352,-0.0074920654296875,-0.61474609375,-0.8349151611328125
3.9,0.15981869399547577,0.05858714506030083,0.0354866199195385,-0.0079345703125,-0.628509521484375,-0.7894134521484375
3.92,0.1367911398410797,0.025369537994265556,0.03658837080001831,-0.005615234375,-0.6274871826171875,-0.7801666259765625
3.94,0.136098712682724,-0.01936757192015648,0.01787007786333561,-0.005615234375,-0.6274871826171875,-0.7801666259765625
3.96,0.12326041609048843,-0.04080468788743019,0.018452243879437447,-0.0065765380859375,-0.6327362060546875,-0.7714691162109375
3.98,0.11197127401828766,-0.02118704468011856,0.019872773438692093,-0.0090179443359375,-0.6285858154296875,-0.75677490234375
4,0.09710391610860825,-0.024114390835165977,0.009208944626152515,-0.0090179443359375,-0.6285858154296875,-0.75677490234375
4.02,0.05181925371289253,-0.039498407393693924,0.010659568943083286,-0.0181884765625,-0.6311798095703125,-0.7462158203125
4.04,0.021873872727155685,-0.04352297633886337,0.013705159537494183,-0.009857177734375,-0.6318359375,-0.7330780029296875
4.06,0.003019758267328143,-0.02046053297817707,-0.0018927085911855102,-0.007568359375,-0.6267547607421875,-0.741302490234375
4.08,0.017195764929056168,0.04381725564599037,-0.03315182775259018,-0.0107879638671875,-0.6359710693359375,-0.7642974853515625
4.1,0.04639040306210518,0.07317807525396347,-0.06361173093318939,-0.015899658203125,-0.638641357421875,-0.7857818603515625
4.12,0.05249356850981712,0.0754055380821228,-0.0730808675289154,-0.01153564453125,-0.63653564453125,-0.7990570068359375
4.14,0.0724337175488472,0.04292057082056999,-0.03708904609084129,-0.0050506591796875,-0.6387786865234375,-0.8016204833984375
4.16,0.11367116868495941,-0.019599800929427147,0.003285009181126952,0.0001983642578125,-0.63995361328125,-0.802490234375
4.18,0.13840101659297943,-0.03971598669886589,0.01896357163786888,-0.003326416015625,-0.6351165771484375,-0.798828125
4.2,0.1262844353914261,-0.014337394386529922,0.010750648565590382,-0.0096893310546875,-0.64031982421875,-0.786956787109375
4.22,0.11668799817562103,0.033304959535598755,-0.0029467877466231585,-0.0089263916015625,-0.64447021484375,-0.766845703125
4.24,0.11401631683111191,0.05602332204580307,-0.0026589001063257456,-0.014984130859375,-0.644317626953125,-0.76116943359375
4.26,0.10489552468061447,0.05313272774219513,-0.004816060420125723,-0.013275146484375,-0.64569091796875,-0.7468109130859375
4.28,0.09216055274009705,0.03413666412234306,-0.01552303321659565,-0.0020751953125,-0.6351318359375,-0.7390899658203125
4.3,0.045952845364809036,0.03297259658575058,-0.00627094553783536,-0.000885009765625,-0.6453857421875,-0.7242889404296875
4.32,-0.004590490832924843,0.024441959336400032,-0.0036064526066184044,-0.0050201416015625,-0.6417388916015625,-0.733184814453125
4.34,-0.011142133735120296,-0.0046456181444227695,-0.000523843802511692,-0.0038604736328125,-0.6467742919921875,-0.7354888916015625
4.36,0.01124865934252739,-0.08313509821891785,0.02009301818907261,-0.003509521484375,-0.6490020751953125,-0.7551727294921875
4.38,0.03516038507223129,-0.12215866893529892,0.031623173505067825,-0.0011444091796875,-0.6528167724609375,-0.7623138427734375
4.4,0.018381137400865555,-0.08253642171621323,0.030654314905405045,-0.002655029296875,-0.6500091552734375,-0.76055908203125
4.42,-0.007722101639956236,-0.015233547426760197,0.021023793146014214,-0.0041351318359375,-0.65399169921875,-0.7659454345703125
4.44,0.004205930046737194,-0.01882455311715603,0.026945063844323158,-0.01312255859375,-0.655548095703125,-0.768402099609375
4.46,0.053766559809446335,-0.03353425860404968,0.0032687638886272907,-0.01312255859375,-0.655548095703125,-0.768402099609375
4.48,0.057557035237550735,-0.045475073158741,-0.02340838685631752,-0.0040740966796875,-0.6457672119140625,-0.75140380859375
4.5,0.012979447841644287,-0.01119459792971611,-0.015959259122610092,-0.0040740966796875,-0.6457672119140625,-0.75140380859375
4.52,-0.008653675206005573,0.02304673008620739,-0.007643804885447025,-0.0117340087890625,-0.6471710205078125,-0.748992919921875
4.54,-0.014217551797628403,0.03424239158630371,0.0036213663406670094,-0.01422119140625,-0.65081787109375,-0.7411346435546875
4.56,0.0019443739438429475,0.008139419369399548,0.0351228341460228,-0.01361083984375,-0.6536407470703125,-0.7483673095703125
4.58,0.025613751262426376,-0.016699351370334625,0.05090898647904396,-0.0099334716796875,-0.6553955078125,-0.753082275390625
4.6,0.02209571562707424,-0.010178867727518082,0.03229349106550217,-0.007720947265625,-0.6495361328125,-0.76055908203125
4.62,0.006536728702485561,0.03374890983104706,0.004743888974189758,-0.013275146484375,-0.656402587890625,-0.74847412109375
4.64,-0.007877363823354244,0.07332747429609299,-0.019473832100629807,-0.0126953125,-0.649810791015625,-0.7590179443359375
4.66,0.008704542182385921,0.05468881130218506,-0.021106084808707237,-0.009521484375,-0.6548614501953125,-0.7628326416015625
4.68,0.035102326422929764,0.03263304382562637,-0.027789020910859108,-0.008941650390625,-0.653045654296875,-0.766571044921875
4.7,0.039502669125795364,0.03754950687289238,-0.022097578272223473,-0.0095672607421875,-0.65301513671875,-0.765045166015625
4.72,0.03963689133524895,0.05272046849131584,-0.011767975986003876,-0.0065460205078125,-0.6566009521484375,-0.763671875
4.74,0.03193556144833565,0.07571393251419067,-0.014342187903821468,-0.0103912353515625,-0.6551361083984375,-0.7615203857421875
4.76,0.029834061861038208,0.07360950857400894,-0.01625753380358219,-0.00567626953125,-0.655853271484375,-0.762847900390625
4.78,0.05192311853170395,0.05029619485139847,-0.0037230991292744875,-0.0072174072265625,-0.658416748046875,-0.7605438232421875
4.8,0.07042329758405685,0.02292235940694809,0.002734533743932843,0.0015869140625,-0.6509246826171875,-0.7553253173828125
4.82,0.046722762286663055,0.027522437274456024,0.014562430791556835,-0.003875732421875,-0.65423583984375,-0.7505035400390625
4.84,0.015370434150099754,0.012883841060101986,0.019092202186584473,-0.0062103271484375,-0.655853271484375,-0.7415924072265625
4.86,0.020000074058771133,-0.0051931641064584255,0.02010580152273178,-0.0084075927734375,-0.6566619873046875,-0.7432403564453125
4.88,0.03310016170144081,-0.017710819840431213,0.03877615928649902,-0.0029754638671875,-0.6592254638671875,-0.748565673828125
4.9,0.045647911727428436,-0.03375609964132309,0.033303894102573395,0.0027008056640625,-0.6591796875,-0.753021240234375
4.92,0.04628147929906845,-0.031742483377456665,0.03606612607836723,-0.002777099609375,-0.66253662109375,-0.76171875
4.94,0.03537583351135254,0.0030506509356200695,0.02233060635626316,-0.0060272216796875,-0.660675048828125,-0.7622833251953125
4.96,0.04811772704124451,0.03292759135365486,-0.0011651329696178436,-0.0094146728515625,-0.6633758544921875,-0.75958251953125
4.98,0.08067221194505692,0.04559677839279175,-0.009830526076257229,-0.0102996826171875,-0.6624298095703125,-0.7588348388671875
5,0.0868893563747406,0.06827758997678757,-0.010892328806221485,-0.0068206787109375,-0.6589813232421875,-0.7497100830078125
5.02,0.07237379997968674,0.11594764143228531,-0.0010154632618650794,-0.0058441162109375,-0.6628265380859375,-0.7469329833984375
5.04,0.06149158999323845,0.12584447860717773,0.023479226976633072,-0.01007080078125,-0.6622772216796875,-0.7495574951171875
5.06,0.04928312823176384,0.09947199374437332,0.048158738762140274,-0.01007080078125,-0.6622772216796875,-0.7495574951171875
5.08,0.05620281770825386,0.0579352043569088,0.02701963298022747,-0.001190185546875,-0.6638031005859375,-0.7387237548828125
5.1,0.06629832834005356,0.06891355663537979,0.021320201456546783,-0.003509521484375,-0.6668701171875,-0.7476348876953125
5.12,0.04754248633980751,0.01696833036839962,0.02642308548092842,-0.00494384765625,-0.6657867431640625,-0.7442779541015625
5.14,0.05170154199004173,-0.027296336367726326,-0.01278636883944273,0.00238037109375,-0.664031982421875,-0.7268524169921875
5.16,0.04716378450393677,0.012112323194742203,-0.02845534309744835,0.0012054443359375,-0.66595458984375,-0.7364044189453125
5.18,0.025677399709820747,-0.01996651664376259,-0.021289309486746788,0.0040283203125,-0.66595458984375,-0.7363739013671875
5.2,0.03663577511906624,-0.05363579839468002,-0.027824973687529564,0.005584716796875,-0.672119140625,-0.728790283203125
5.22,0.07125847041606903,-0.044810615479946136,-0.03148868307471275,-0.0000762939453125,-0.673583984375,-0.7404327392578125
5.24,0.11455027759075165,-0.030943535268306732,-0.016103602945804596,-0.003173828125,-0.6738739013671875,-0.75860595703125
5.26,0.1441957950592041,-0.0555972158908844,0.0014176006661728024,0.0019378662109375,-0.6668701171875,-0.7589111328125
5.28,0.1555970460176468,-0.07401430606842041,0.008609200827777386,0.0011749267578125,-0.6708831787109375,-0.7527618408203125
5.3,0.1644134372472763,-0.09910740703344345,0.0047028763219714165,0.0011138916015625,-0.6777191162109375,-0.742095947265625
5.32,0.1791606992483139,-0.14742833375930786,0.012522982433438301,0.0008392333984375,-0.6804962158203125,-0.743621826171875
5.34,0.25828108191490173,-0.19490744173526764,0.029405824840068817,0.000335693359375,-0.6912384033203125,-0.7393035888671875
5.36,0.32752859592437744,-0.22059603035449982,0.02292875200510025,-0.0034942626953125,-0.6770782470703125,-0.757171630859375
5.38,0.39442506432533264,-0.23206119239330292,0.013132579624652863,-0.01202392578125,-0.682830810546875,-0.7510528564453125
5.4,0.4521237909793854,-0.21953821182250977,0.004804875236004591,-0.0093841552734375,-0.6880340576171875,-0.7409210205078125
5.42,0.43590593338012695,-0.17476435005664825,0.0020096213556826115,-0.0155029296875,-0.6944427490234375,-0.73095703125
5.44,0.413600891828537,-0.12970207631587982,0.004447212442755699,-0.0199432373046875,-0.698577880859375,-0.7087249755859375
5.46,0.4196651875972748,-0.10609074681997299,0.024024376645684242,-0.024078369140625,-0.711517333984375,-0.691925048828125
5.48,0.4770919978618622,-0.05823587626218796,0.03008493222296238,-0.026519775390625,-0.727813720703125,-0.7029876708984375
5.5,0.48981738090515137,0.0017297230660915375,0.04862399399280548,-0.026519775390625,-0.727813720703125,-0.7029876708984375
5.52,0.36669304966926575,0.029471339657902718,0.07229390740394592,-0.0346527099609375,-0.726165771484375,-0.69305419921875
5.54,0.18947511911392212,0.05073348432779312,0.07040438801050186,-0.0342559814453125,-0.7147369384765625,-0.6527252197265625
5.56,0.061893194913864136,-0.02564171329140663,0.028668396174907684,-0.0305328369140625,-0.7255096435546875,-0.633544921875
5.58,0.017162742093205452,-0.15519171953201294,-0.02274792268872261,-0.028839111328125,-0.7434234619140625,-0.6397705078125
5.6,0.06485676020383835,-0.222378209233284,-0.07238045334815979,-0.0201263427734375,-0.75164794921875,-0.653167724609375
5.62,0.1156293973326683,-0.24358069896697998,-0.08234254270792007,-0.024810791015625,-0.744354248046875,-0.6745147705078125
5.64,0.019523633643984795,-0.2654615044593811,-0.08296359330415726,-0.0310516357421875,-0.739593505859375,-0.6764373779296875
5.66,-0.08268901705741882,-0.30835944414138794,-0.0757853090763092,-0.0379486083984375,-0.7498779296875,-0.645050048828125
5.68,-0.08006314188241959,-0.21650567650794983,-0.07210615277290344,-0.049957275390625,-0.745269775390625,-0.6263580322265625
5.7,-0.030496124178171158,-0.06383916735649109,-0.06035255640745163,-0.0579986572265625,-0.7310791015625,-0.6585540771484375
5.72,-0.024692563340067863,-0.009324259124696255,-0.031382158398628235,-0.0493011474609375,-0.7378387451171875,-0.670013427734375
5.74,-0.06311958283185959,-0.024327710270881653,0.011390339583158493,-0.04052734375,-0.7433624267578125,-0.6557464599609375
5.76,-0.10647957026958466,0.002229065867140889,0.033911362290382385,-0.04296875,-0.7409515380859375,-0.642120361328125
5.78,-0.08495963364839554,0.02418496459722519,0.04085315763950348,-0.0489044189453125,-0.740631103515625,-0.6529541015625
5.8,-0.05874320864677429,0.03610021248459816,0.03864246606826782,-0.0486907958984375,-0.728790283203125,-0.6797332763671875
5.82,-0.06599126756191254,0.04249419644474983,0.02388642355799675,-0.0508880615234375,-0.7347412109375,-0.6868133544921875
5.84,-0.08626644313335419,0.035958532243967056,0.018926287069916725,-0.043792724609375,-0.7433319091796875,-0.6845703125
5.86,-0.085971899330616,0.08931203931570053,0.024517327547073364,-0.0426788330078125,-0.7438507080078125,-0.673553466796875
5.88,-0.08433379232883453,0.17621923983097076,0.021495969966053963,-0.0485992431640625,-0.7368927001953125,-0.685272216796875
5.9,-0.0623621791601181,0.15270166099071503,0.01161724142730236,-0.0475921630859375,-0.739105224609375,-0.681365966796875
5.92,-0.03796229511499405,0.11409781128168106,0.028312064707279205,-0.040283203125,-0.7254180908203125,-0.699066162109375
5.94,-0.012181565165519714,0.022110627964138985,-0.008799350820481777,-0.039215087890625,-0.7287445068359375,-0.69097900390625
5.96,-0.0010226538870483637,0.0031308121979236603,-0.014682273380458355,-0.032684326171875,-0.7328643798828125,-0.678955078125
5.98,-0.014677746221423149,-0.011505388654768467,-0.005335643421858549,-0.032684326171875,-0.7328643798828125,-0.678955078125
6,-0.04689773544669151,-0.006523679476231337,0.0008636631537228823,-0.03814697265625,-0.72943115234375,-0.6739501953125
6.02,-0.04773210361599922,0.058755192905664444,-0.010468087159097195,-0.0438232421875,-0.72735595703125,-0.6651458740234375
6.04,-0.04782478138804436,0.11489755660295486,-0.014279869385063648,-0.04010009765625,-0.7302093505859375,-0.669281005859375
6.06,-0.06385061889886856,0.08713383972644806,-0.006329268682748079,-0.0364227294921875,-0.726898193359375,-0.67877197265625
6.08,-0.0681162029504776,0.03891490772366524,-0.007667240686714649,-0.03485107421875,-0.727325439453125,-0.6717681884765625
6.1,-0.07615761458873749,0.010208428837358952,-0.013027384877204895,-0.03619384765625,-0.725372314453125,-0.6635894775390625
6.12,-0.08868246525526047,0.03153928369283676,-0.020356670022010803,-0.0316619873046875,-0.7210693359375,-0.6720733642578125
6.14,-0.10343504697084427,0.05161259323358536,-0.023000391200184822,-0.034423828125,-0.7197418212890625,-0.679412841796875
6.16,-0.11493191123008728,0.07502391189336777,-0.011635084636509418,-0.0345001220703125,-0.726104736328125,-0.6841278076171875
6.18,-0.10583135485649109,0.0795867070555687,0.0017073525814339519,-0.035858154296875,-0.7252044677734375,-0.691253662109375
6.2,-0.06714601069688797,0.053756970912218094,-0.0027457191608846188,-0.030364990234375,-0.72442626953125,-0.7044525146484375
6.22,-0.019292205572128296,0.06396486610174179,-0.018570754677057266,-0.0289764404296875,-0.7244720458984375,-0.7253265380859375
6.24,0.0034591800067573786,0.06626050919294357,-0.02070634439587593,-0.0289764404296875,-0.7244720458984375,-0.7253265380859375
6.26,-0.012139220722019672,0.052383843809366226,-0.02406245842576027,-0.0329437255859375,-0.7206878662109375,-0.7102813720703125
6.28,-0.024683242663741112,0.046897467225790024,-0.030170151963829994,-0.025543212890625,-0.7220306396484375,-0.693359375
6.3,-0.02118837647140026,0.06250359117984772,-0.04747777059674263,-0.0268707275390625,-0.7195892333984375,-0.691558837890625
6.32,-0.015813317149877548,0.08671572059392929,-0.047621313482522964,-0.0274658203125,-0.7158050537109375,-0.6894683837890625
6.34,-0.02315751649439335,0.07996993511915207,-0.02839622087776661,-0.0196685791015625,-0.71942138671875,-0.685699462890625
6.36,-0.03281120955944061,0.05389545485377312,-0.013934724032878876,-0.0196685791015625,-0.71942138671875,-0.685699462890625
6.38,-0.044023651629686356,0.05204296112060547,-0.018882345408201218,-0.0204010009765625,-0.7175445556640625,-0.6853485107421875
6.4,-0.05511598289012909,0.0655132308602333,-0.024290425702929497,-0.0236053466796875,-0.7162628173828125,-0.6899261474609375
6.42,-0.0629081279039383,0.06203807145357132,-0.015503325499594212,-0.0204925537109375,-0.712371826171875,-0.6878509521484375
6.44,-0.06609512865543365,0.042873166501522064,-0.013226322829723358,-0.018951416015625,-0.7154083251953125,-0.690399169921875
6.46,-0.05941299349069595,0.013887852430343628,0.002862099092453718,-0.0135345458984375,-0.718719482421875,-0.693603515625
6.48,-0.05245601758360863,-0.0215377826243639,0.018311362713575363,-0.011260986328125,-0.71405029296875,-0.6994171142578125
6.5,-0.051482897251844406,0.010388192720711231,-0.034097250550985336,-0.0066680908203125,-0.70147705078125,-0.702606201171875
6.52,-0.0484335795044899,0.046305712312459946,-0.046791739761829376,-0.0369415283203125,-0.724090576171875,-0.70709228515625
6.54,-0.037159617990255356,0.034087397158145905,-0.02719859778881073,-0.0165557861328125,-0.7156219482421875,-0.7065277099609375
6.56,-0.020597953349351883,0.03714150935411453,-0.015958992764353752,-0.008209228515625,-0.7133331298828125,-0.709991455078125
6.58,-0.02388855442404747,0.053588658571243286,-0.014276407659053802,-0.0076904296875,-0.7104949951171875,-0.7102813720703125
6.6,-0.02827611193060875,0.0731264054775238,-0.02341637574136257,-0.0200347900390625,-0.712738037109375,-0.709808349609375
6.62,-0.016028767451643944,0.054437410086393356,-0.022369753569364548,-0.0157928466796875,-0.7112884521484375,-0.7074127197265625
6.64,0.005947637837380171,0.02936800941824913,-0.013961621560156345,-0.0105133056640625,-0.7118072509765625,-0.7032470703125
6.66,0.03057548590004444,0.016934508457779884,-0.015157381072640419,-0.005157470703125,-0.7087554931640625,-0.704742431640625
6.68,0.027040405198931694,0.014629809185862541,-0.0014405038673430681,-0.0125274658203125,-0.708038330078125,-0.706634521484375
6.7,0.0013928331900388002,-0.0018141453620046377,0.007711981888860464,-0.0109100341796875,-0.70654296875,-0.7032623291015625
6.72,-0.0038871499709784985,-0.007220628671348095,0.011120295152068138,-0.01239013671875,-0.711212158203125,-0.69781494140625
6.74,0.026754649356007576,0.02365792542695999,-0.005921538453549147,-0.0061492919921875,-0.713531494140625,-0.7028961181640625
6.76,0.053814761340618134,0.02045414224267006,-0.014123542234301567,-0.0108184814453125,-0.711639404296875,-0.716094970703125
6.78,0.04325905814766884,0.039620380848646164,-0.01671959087252617,-0.0109710693359375,-0.7108306884765625,-0.716827392578125
6.8,0.02256869152188301,0.026136795058846474,-0.009673666208982468,-0.011383056640625,-0.7121124267578125,-0.705322265625
6.82,0.032709743827581406,0.01847754418849945,0.00797377061098814,-0.0063018798828125,-0.7155914306640625,-0.6947174072265625
6.84,-0.01931510865688324,-0.2272115796804428,-0.09280797094106674,0.054046630859375,-0.7158966064453125,-0.6729736328125
6.86,-0.11061226576566696,-0.787891685962677,-0.26723116636276245,0.054046630859375,-0.7158966064453125,-0.6729736328125
6.88,-0.04987940937280655,-0.5512165427207947,-0.22441525757312775,-0.031158447265625,-0.725311279296875,-0.676116943359375
6.9,0.03803553432226181,-0.26138952374458313,-0.31359121203422546,-0.0494232177734375,-0.694793701171875,-0.72760009765625
6.92,0.060136307030916214,-0.0950881689786911,-0.15920962393283844,-0.0433502197265625,-0.7209625244140625,-0.7392120361328125
6.94,0.034571293741464615,0.03899800032377243,-0.0699457973241806,0.0095062255859375,-0.70123291015625,-0.700714111328125
6.96,-0.08435962349176407,0.25877615809440613,-0.007170827593654394,-0.028533935546875,-0.7141265869140625,-0.7052001953125
6.98,-0.244848370552063,0.47659823298454285,0.06515929847955704,-0.0421295166015625,-0.719024658203125,-0.6611328125
7,-0.33074063062667847,0.554478645324707,0.1258697807788849,-0.0421295166015625,-0.719024658203125,-0.6611328125
7.02,-0.35654932260513306,0.5051358938217163,0.11503790318965912,-0.02459716796875,-0.6983489990234375,-0.6744537353515625
7.04,-0.2725018262863159,0.44313961267471313,0.06815881282091141,-0.0001220703125,-0.68597412109375,-0.70135498046875
7.06,-0.1716790795326233,0.2810894548892975,0.046968840062618256,0.01678466796875,-0.6852264404296875,-0.7339324951171875
7.08,-0.15379860997200012,0.16168689727783203,0.015177887864410877,0.0193634033203125,-0.6995391845703125,-0.7366485595703125
7.1,-0.13634106516838074,0.05744544789195061,-0.01889086700975895,0.0110321044921875,-0.70526123046875,-0.715728759765625
7.12,-0.07356316596269608,0.022427543997764587,-0.03122716210782528,0.0209808349609375,-0.689605712890625,-0.72552490234375
7.14,-0.0639781802892685,0.04146062582731247,-0.014994395896792412,0.0248260498046875,-0.68731689453125,-0.7395477294921875
7.16,-0.08118247240781784,0.08112334460020065,0.000835966260638088,0.0175933837890625,-0.688140869140625,-0.7303314208984375
7.18,-0.0668269693851471,0.10568195581436157,0.012834039516746998,0.010345458984375,-0.68414306640625,-0.7266998291015625
7.2,-0.05684543773531914,0.1132863461971283,0.031138211488723755,0.01129150390625,-0.6836395263671875,-0.7302398681640625
7.22,-0.05721002444624901,0.12926504015922546,0.05675222724676132,0.0152130126953125,-0.6772308349609375,-0.7257843017578125
7.24,-0.09412596374750137,0.115972138941288,0.08293802291154861,0.0155029296875,-0.67303466796875,-0.7261199951171875
7.26,-0.17819903790950775,0.0837918370962143,0.07749345898628235,0.010650634765625,-0.6694793701171875,-0.7119140625
7.28,-0.24571096897125244,0.02895415388047695,0.015934757888317108,0.0160675048828125,-0.6828765869140625,-0.6891632080078125
7.3,-0.24031220376491547,-0.04358156397938728,-0.0622953325510025,0.03399658203125,-0.69732666015625,-0.6956634521484375
7.32,-0.1875123679637909,-0.10726973414421082,-0.09069447964429855,0.034759521484375,-0.6891632080078125,-0.7249908447265625
7.34,-0.08031028509140015,-0.049380600452423096,-0.09149529784917831,0.0367431640625,-0.66644287109375,-0.747467041015625
7.36,-0.004630704410374165,0.0068184914998710155,-0.07778321206569672,0.01885986328125,-0.647674560546875,-0.7911529541015625
7.38,-0.008677910082042217,-0.004038949962705374,-0.0465744249522686,0.0132598876953125,-0.662567138671875,-0.782623291015625
7.4,-0.023298397660255432,0.03485385328531265,0.003876497270539403,0.0270233154296875,-0.6694488525390625,-0.7451324462890625
7.42,-0.01507082860916853,0.07029280811548233,0.053283460438251495,0.0185394287109375,-0.6724395751953125,-0.7527008056640625
7.44,0.012366387993097305,0.08238781988620758,0.07694564759731293,0.0189971923828125,-0.6730499267578125,-0.764617919921875
7.46,0.03652631863951683,0.08918686956167221,0.07152211666107178,0.0191192626953125,-0.6706695556640625,-0.7680511474609375
7.48,0.039799343794584274,0.04229499399662018,0.055142614990472794,0.023162841796875,-0.6703033447265625,-0.7716064453125
7.5,0.043164514005184174,-0.002642122097313404,0.02197267673909664,0.027923583984375,-0.6685943603515625,-0.7476654052734375
7.52,0.035594746470451355,-0.0008186557097360492,-0.01200899202376604,0.027191162109375,-0.664154052734375,-0.7366790771484375
7.54,0.010614560917019844,-0.012234562076628208,-0.03484133630990982,0.0267181396484375,-0.666168212890625,-0.7374114990234375
7.56,-0.0015997608425095677,-0.02563958242535591,-0.03729171305894852,0.0253448486328125,-0.66949462890625,-0.7354888916015625
7.58,0.00896819494664669,-0.03146205097436905,-0.008756740018725395,0.022552490234375,-0.6717071533203125,-0.7394866943359375
7.6,0.025671275332570076,-0.03592124953866005,0.0177606213837862,0.025299072265625,-0.6689453125,-0.7413787841796875
7.62,0.033659160137176514,-0.023254988715052605,0.02635597437620163,0.0241546630859375,-0.6680908203125,-0.744476318359375
7.64,0.020328707993030548,-0.008842759765684605,0.02123551443219185,0.026702880859375,-0.667236328125,-0.7390899658203125
7.66,-0.0060091568157076836,0.009948504157364368,0.022949790582060814,0.01702880859375,-0.6704864501953125,-0.7397003173828125
7.68,-0.01660587452352047,0.028986111283302307,0.012974920682609081,0.02142333984375,-0.669708251953125,-0.738861083984375
7.7,0.009148490615189075,0.011112039908766747,0.01317945122718811,0.0211334228515625,-0.6729583740234375,-0.739532470703125
7.72,0.024572720751166344,-0.0033776871860027313,0.011362110264599323,0.02362060546875,-0.670074462890625,-0.743896484375
7.74,0.026267822831869125,-0.003653058083727956,0.016452742740511894,0.0189971923828125,-0.66973876953125,-0.7402191162109375
7.76,0.0025747441686689854,0.0174410417675972,0.016027435660362244,0.017578125,-0.6671600341796875,-0.7361297607421875
7.78,-0.017798438668251038,0.007788680959492922,0.011476093903183937,0.01788330078125,-0.6693878173828125,-0.739837646484375
7.8,-0.022128205746412277,0.012254003435373306,0.011297395452857018,0.0192718505859375,-0.67303466796875,-0.74072265625
7.82,-0.005357747431844473,-0.006102367304265499,0.0075998627580702305,0.0213165283203125,-0.6691741943359375,-0.74920654296875
7.84,0.015136076137423515,-0.00564164062961936,-0.002517219865694642,0.021636962890625,-0.6701812744140625,-0.7488555908203125
7.86,0.018976887688040733,-0.022713301703333855,-0.0017014936311170459,0.0194854736328125,-0.668487548828125,-0.7507781982421875
7.88,0.007337008602917194,0.0035601137205958366,-0.008963135071098804,0.0192718505859375,-0.6697845458984375,-0.7476043701171875
7.9,-0.010043312795460224,0.011655856855213642,-0.014475345611572266,0.0190582275390625,-0.670074462890625,-0.73797607421875
7.92,-0.013552027754485607,0.017127854749560356,-0.010251572355628014,0.0198516845703125,-0.6717681884765625,-0.7364654541015625
7.94,-0.005085039883852005,0.0089966906234622,0.001300155185163021,0.0166473388671875,-0.670928955078125,-0.7344512939453125
7.96,0.000023435817638528533,0.008933840319514275,0.0024559672456234694,0.0208740234375,-0.6674652099609375,-0.742828369140625
7.98,0.005305283237248659,-0.023456323891878128,0.0034674357157200575,0.0203094482421875,-0.6728515625,-0.7348480224609375
8,0.010249707847833633,0.005776130128651857,-0.00037816885742358863,0.021026611328125,-0.6651763916015625,-0.7386627197265625
8.02,-0.046910252422094345,0.031674571335315704,0.009215069934725761,0.0175628662109375,-0.6676025390625,-0.744293212890625
8.04,-0.06005428358912468,0.016221581026911736,0.013852965086698532,0.02093505859375,-0.6727294921875,-0.7300262451171875
8.06,-0.007366303354501724,0.029099561274051666,0.013142167590558529,0.020294189453125,-0.6756744384765625,-0.74273681640625
8.08,0.013045494444668293,0.02799142152070999,0.014404771849513054,0.0204620361328125,-0.6682586669921875,-0.7587127685546875
8.1,0.010277139022946358,0.018393654376268387,0.02063177525997162,0.0225830078125,-0.665985107421875,-0.7473907470703125
8.12,-0.00598492193967104,0.012195147573947906,0.016949955374002457,0.0184478759765625,-0.6719207763671875,-0.742156982421875
8.14,-0.012937902472913265,0.02779354713857174,0.018438128754496574,0.0186767578125,-0.6663665771484375,-0.7362060546875
8.16,-0.025897378101944923,0.028786906972527504,0.013165337033569813,0.0221405029296875,-0.6673126220703125,-0.742218017578125
8.18,-0.01321140956133604,0.004550276789814234,0.005495432764291763,0.0151519775390625,-0.6681671142578125,-0.7382049560546875
8.2,-0.013133378699421883,-0.006192381959408522,-0.010876083746552467,0.023040771484375,-0.6633453369140625,-0.747222900390625
8.22,-0.004661863669753075,0.004090615548193455,-0.013496100902557373,0.0232086181640625,-0.6703948974609375,-0.747344970703125
8.24,-0.01901843212544918,0.019291939213871956,0.0010066748363897204,0.0231475830078125,-0.6702728271484375,-0.74078369140625
8.26,-0.02016332559287548,0.03599128872156143,0.008150071837008,0.0231475830078125,-0.6702728271484375,-0.74078369140625
8.28,0.005701827816665173,0.047640491276979446,0.012082229368388653,0.0214996337890625,-0.666717529296875,-0.74810791015625
8.3,0.01441116351634264,0.03150732442736626,0.016054334118962288,0.0199127197265625,-0.667694091796875,-0.74993896484375
8.32,-0.0009843043517321348,0.003483148291707039,0.014938735403120518,0.02264404296875,-0.6661529541015625,-0.7440338134765625
8.34,-0.01918727718293667,-0.007041397970169783,0.017372066155076027,0.0208282470703125,-0.66455078125,-0.735870361328125
8.36,-0.030492927879095078,-0.024478444829583168,0.02028370089828968,0.0234527587890625,-0.6660003662109375,-0.7380218505859375
8.38,-0.022963905707001686,-0.014946192502975464,0.015594406053423882,0.018951416015625,-0.6693115234375,-0.7404327392578125
8.4,-0.012715262360870838,0.010570619255304337,0.006040049251168966,0.0226287841796875,-0.6649627685546875,-0.74700927734375
8.42,-0.011025220155715942,-0.008261391893029213,0.0017800568602979183,0.0210113525390625,-0.663543701171875,-0.74737548828125
8.44,-0.018257834017276764,-0.016403473913669586,0.010194581001996994,0.0207366943359375,-0.6618804931640625,-0.7394256591796875
8.46,-0.031316112726926804,-0.031203459948301315,0.002624278888106346,0.023040771484375,-0.66455078125,-0.7338409423828125
8.48,-0.04532353952527046,-0.012702479027211666,0.010945059359073639,0.0169830322265625,-0.6650543212890625,-0.7404022216796875
8.5,-0.06013284623622894,-0.01113441027700901,0.006481335032731295,0.01873779296875,-0.669677734375,-0.7412261962890625
8.52,-0.038368694484233856,-0.027113908901810646,0.016405072063207626,0.01788330078125,-0.66607666015625,-0.7404632568359375
8.54,-0.028318723663687706,-0.0558273121714592,0.019699402153491974,0.0225830078125,-0.664794921875,-0.753082275390625
8.56,-0.037574540823698044,-0.05910566449165344,0.02202940173447132,0.01849365234375,-0.6589508056640625,-0.7494659423828125
8.58,-0.03317606449127197,-0.05702653527259827,0.016097743064165115,0.0176544189453125,-0.66278076171875,-0.75335693359375
8.6,-0.013108078390359879,-0.0596846342086792,0.004821653012186289,0.0163726806640625,-0.6631622314453125,-0.7590179443359375
8.62,-0.022232867777347565,-0.05194175988435745,0.004210191313177347,0.0149383544921875,-0.6608428955078125,-0.759918212890625
8.64,-0.06208627298474312,-0.050225887447595596,0.010451043024659157,0.01373291015625,-0.6578826904296875,-0.746429443359375
8.66,-0.09466472268104553,-0.050446394830942154,0.016830112785100937,0.015594482421875,-0.6556549072265625,-0.7402496337890625
8.68,-0.10097242146730423,-0.02924443781375885,0.027663584798574448,0.0099029541015625,-0.6606903076171875,-0.7385406494140625
8.7,-0.09082045406103134,-0.026496322825551033,0.01841975376009941,0.0081939697265625,-0.6616973876953125,-0.744537353515625
8.72,-0.10720794647932053,-0.05957464501261711,-0.0008458199445158243,0.009521484375,-0.6646270751953125,-0.7557830810546875
8.74,-0.09933031350374222,-0.0997937023639679,-0.010684335604310036,0.012176513671875,-0.6599884033203125,-0.7482757568359375
8.76,-0.0888742133975029,-0.07156766206026077,-0.011514709331095219,0.007965087890625,-0.653045654296875,-0.756072998046875
8.78,-0.06030488386750221,0.0046818372793495655,-0.008868060074746609,0.005126953125,-0.644744873046875,-0.767059326171875
8.8,-0.02406272478401661,0.042440399527549744,-0.0022620889358222485,0.0006256103515625,-0.6525726318359375,-0.7816009521484375
8.82,0.013659619726240635,0.0668482705950737,0.01438133604824543,0.0023193359375,-0.653961181640625,-0.7799072265625
8.84,0.027883829548954964,0.07163956761360168,0.01672252081334591,0.007537841796875,-0.653533935546875,-0.776824951171875
8.86,0.0360429547727108,0.04859736189246178,0.017433052882552147,0.008697509765625,-0.64996337890625,-0.765960693359375
8.88,0.033127594739198685,0.025980466976761818,0.014335529878735542,0.010345458984375,-0.6518096923828125,-0.75518798828125
8.9,0.01781042292714119,0.020792363211512566,0.009222793392837048,0.0065155029296875,-0.6496124267578125,-0.7543792724609375
8.92,0.010834272019565105,0.014601579867303371,0.0008982842555269599,0.0073089599609375,-0.6520843505859375,-0.74884033203125
8.94,0.004288222175091505,0.008556470274925232,0.0031380027066916227,0.007293701171875,-0.6482696533203125,-0.7530059814453125
8.96,0.0034562505315989256,0.009387376718223095,-0.001612544059753418,0.0106964111328125,-0.6507720947265625,-0.7554931640625
8.98,0.004643221385776997,0.008334629237651825,-0.008905611000955105,0.0092010498046875,-0.6518707275390625,-0.7563323974609375
9,0.0020836573094129562,-0.0007805725326761603,-0.0054911719635128975,0.0069122314453125,-0.6532135009765625,-0.76019287109375
9.02,-0.0038978024385869503,-0.012448147870600224,0.0000021305288555595325,0.011627197265625,-0.6534271240234375,-0.7576446533203125
9.04,-0.009110407903790474,-0.02418070286512375,0.005501291714608669,0.01031494140625,-0.653411865234375,-0.7533416748046875
9.06,-0.005313006229698658,-0.0036573191173374653,-0.002674879040569067,0.007537841796875,-0.652587890625,-0.7541351318359375
9.08,-0.004780107643455267,0.028253741562366486,-0.01381248515099287,0.005645751953125,-0.649688720703125,-0.755218505859375
9.1,-0.011655057780444622,0.06872100383043289,-0.01823253370821476,0.0086669921875,-0.648712158203125,-0.7518463134765625
9.12,-0.02815919928252697,0.07404093444347382,-0.0186019130051136,0.0086669921875,-0.648712158203125,-0.7518463134765625
9.14,-0.030848460271954536,0.061113420873880386,0.0036043222062289715,0.010406494140625,-0.6506805419921875,-0.7546539306640625
9.16,-0.007573497481644154,0.03700302541255951,0.021700767800211906,0.014801025390625,-0.6554718017578125,-0.77276611328125
9.18,0.028330707922577858,0.0035297537688165903,0.03790929913520813,0.014801025390625,-0.6554718017578125,-0.77276611328125
9.2,0.03262398764491081,0.0003755057114176452,0.056961022317409515,0.0133056640625,-0.6481781005859375,-0.7798614501953125
9.22,0.02480042167007923,0.009643572382628918,0.0459163598716259,0.010467529296875,-0.6520233154296875,-0.771270751953125
9.24,0.010046509094536304,0.03829013183712959,0.02797038108110428,0.0094451904296875,-0.650238037109375,-0.7619476318359375
9.26,-0.0024588967207819223,0.057383663952350616,0.012439891695976257,0.009368896484375,-0.6520538330078125,-0.758453369140625
9.28,-0.001806155894882977,0.0437362939119339,-0.002043177140876651,0.0068359375,-0.6461181640625,-0.750885009765625
9.3,0.0008146609761752188,0.004294879734516144,-0.01417334284633398,0.0120697021484375,-0.648590087890625,-0.7512664794921875
9.32,-0.012426309287548065,-0.042931754142045975,-0.008450476452708244,0.0151519775390625,-0.6507415771484375,-0.751251220703125
9.34,-0.025248631834983826,-0.05005810782313347,-0.014436996541917324,0.0161285400390625,-0.6520538330078125,-0.752685546875
9.36,-0.020227773115038872,-0.04282975569367409,-0.013137905858457088,0.011962890625,-0.656005859375,-0.7540130615234375
9.38,-0.00957006961107254,-0.03877615928649902,-0.025137044489383698,0.010467529296875,-0.6505889892578125,-0.7599639892578125
9.4,0.008890164084732533,-0.02719486877322197,-0.031064175069332123,0.010467529296875,-0.6505889892578125,-0.7599639892578125
9.42,0.026378344744443893,0.01034691371023655,-0.03701314702630043,0.0137176513671875,-0.65252685546875,-0.7604217529296875
9.44,0.022060029208660126,0.05330077186226845,-0.01315015647560358,0.0048675537109375,-0.6404876708984375,-0.7573699951171875
9.46,0.00560994865372777,0.10414291173219681,0.0014466290595009923,0.0048675537109375,-0.6404876708984375,-0.7573699951171875
9.48,0.0005102616851218045,0.11870507895946503,0.01492089219391346,0.0075225830078125,-0.6475677490234375,-0.7548980712890625
9.5,0.02189517952501774,0.059903547167778015,0.04282762482762337,0.0191192626953125,-0.6531982421875,-0.7635040283203125
9.52,0.06380907446146011,-0.015861520543694496,0.06144312024116516,0.019561767578125,-0.658721923828125,-0.775177001953125
9.54,0.10427340865135193,-0.061651114374399185,0.05884787067770958,0.0177154541015625,-0.66290283203125,-0.7820587158203125
9.56,0.09204630553722382,-0.055932506918907166,0.03898708149790764,0.0135955810546875,-0.65380859375,-0.7813568115234375
9.58,0.05065012723207474,-0.011419101618230343,0.012011921964585781,0.0090789794921875,-0.65460205078125,-0.7594451904296875
9.6,0.01384071446955204,0.031316112726926804,-0.012600480578839779,0.007415771484375,-0.650360107421875,-0.7372589111328125
9.62,-0.015604792162775993,0.06594119966030121,-0.026007365435361862,0.0057220458984375,-0.6492462158203125,-0.72723388671875
9.64,-0.022457905113697052,0.05664224177598953,-0.028749356046319008,0.01556396484375,-0.6538543701171875,-0.7276153564453125
9.66,-0.03647864982485771,0.02593865618109703,-0.023147130385041237,0.01556396484375,-0.6538543701171875,-0.7276153564453125
9.68,-0.05224988982081413,0.022188393399119377,-0.01672145538032055,0.0140380859375,-0.656890869140625,-0.73602294921875
9.7,-0.05632638931274414,0.028025243431329727,-0.021685587242245674,0.01300048828125,-0.651702880859375,-0.747955322265625
9.72,-0.046174418181180954,0.028266258537769318,-0.025476863607764244,0.0137786865234375,-0.6526336669921875,-0.7613372802734375
9.74,-0.0219122227281332,0.019701533019542694,-0.016400543972849846,0.0152740478515625,-0.6525726318359375,-0.7733001708984375
9.76,0.01709403283894062,-0.0008428904693573713,0.0016495619202032685,0.016998291015625,-0.6533050537109375,-0.7836151123046875
9.78,0.03599794954061508,-0.03371508792042732,0.013757890090346336,0.017791748046875,-0.65350341796875,-0.7904510498046875
9.8,0.05720283463597298,-0.0853511169552803,0.02478204481303692,0.02117919921875,-0.65606689453125,-0.782073974609375
9.82,0.07032263278961182,-0.09274405241012573,0.02852378599345684,0.0188446044921875,-0.6607513427734375,-0.7748260498046875
9.84,0.08295693248510361,-0.06078239157795906,0.017968880012631416,0.0149078369140625,-0.660186767578125,-0.767852783203125
9.86,0.08386427164077759,-0.022098910063505173,-0.0012330436147749424,0.010528564453125,-0.6594390869140625,-0.761383056640625
9.88,0.06010434776544571,0.016817595809698105,-0.011873170733451843,0.0076904296875,-0.6569061279296875,-0.7479248046875
9.9,0.029036445543169975,0.02544890157878399,-0.009859289042651653,0.007720947265625,-0.6538848876953125,-0.7308807373046875
9.92,0.007749798707664013,0.038475219160318375,-0.006499444600194693,0.012054443359375,-0.6548004150390625,-0.7208404541015625
9.94,-0.014731807634234428,0.031804002821445465,0.002305232221260667,0.009796142578125,-0.6510467529296875,-0.7188568115234375
9.96,-0.039742086082696915,0.017775269225239754,0.0030429279431700706,0.010589599609375,-0.65423583984375,-0.7222137451171875
9.98,-0.05242965370416641,0.01378372311592102,0.0073234266601502895,0.0088653564453125,-0.6553802490234375,-0.73333740234375
10,-0.05712214112281799,0.0191957987844944,-0.0010455570882186294,0.0135345458984375,-0.65911865234375,-0.767822265625
10.02,-0.02720126137137413,0.019523100927472115,-0.0037169738207012415,0.0135345458984375,-0.65911865234375,-0.767822265625
10.04,0.020422184839844704,0.02678474225103855,-0.008566856384277344,0.015533447265625,-0.659912109375,-0.7839813232421875
10.06,0.04677043482661247,0.029734458774328232,-0.011256382800638676,0.01373291015625,-0.65924072265625,-0.790496826171875
10.08,0.062369100749492645,0.026560237631201744,-0.011332016438245773,0.014617919921875,-0.6580047607421875,-0.7825164794921875
10.1,0.07683885842561722,0.013014335185289383,0.0012066783383488655,0.0160064697265625,-0.660308837890625,-0.7740478515625
10.12,0.06665545701980591,0.011333348229527473,0.008523712866008282,0.014129638671875,-0.6583404541015625,-0.764678955078125
10.14,0.07138523459434509,0.028026042506098747,0.008905078284442425,0.0131072998046875,-0.6583709716796875,-0.7455902099609375
10.16,0.0707351565361023,0.03232411667704582,0.004000600427389145,0.014678955078125,-0.659942626953125,-0.7408447265625
10.18,0.05745317414402962,0.014658837579190731,-0.005596366710960865,0.0139312744140625,-0.658782958984375,-0.7337493896484375
10.2,0.022338861599564552,0.00316037330776453,0.002861832967028022,0.0136871337890625,-0.6638336181640625,-0.727569580078125
10.22,-0.009642506949603558,0.007110639940947294,0.01734010875225067,0.0137481689453125,-0.6595916748046875,-0.7193450927734375
10.24,-0.02244352363049984,0.004525509662926197,0.013851366937160492,0.0155029296875,-0.6619720458984375,-0.7211151123046875
10.26,-0.015956595540046692,0.01564686931669712,0.009429454803466797,0.0159912109375,-0.661376953125,-0.7347564697265625
10.28,-0.015627961605787277,0.02960290014743805,0.002922286745160818,0.0135498046875,-0.6614532470703125,-0.7531890869140625
10.3,-0.01001934427767992,0.01607244275510311,-0.01326840091496706,0.01348876953125,-0.65869140625,-0.75677490234375
10.32,-0.0005387574783526361,-0.006089850328862667,-0.014251906424760818,0.0159149169921875,-0.6637420654296875,-0.761810302734375
10.34,0.019399264827370644,-0.0144108971580863,-0.005606752820312977,0.0181427001953125,-0.6631927490234375,-0.7684783935546875
10.36,0.03512443229556084,-0.01624155417084694,0.005633118096739054,0.0187530517578125,-0.664581298828125,-0.77313232421875
10.38,0.044207409024238586,-0.008649947121739388,0.0032051142770797014,0.0140838623046875,-0.6648712158203125,-0.7677764892578125
10.4,0.04159005358815193,-0.02076253667473793,-0.0023515713401138783,0.0125274658203125,-0.6624755859375,-0.7581329345703125
10.42,0.0301352646201849,-0.010959440842270851,-0.0004820321628358215,0.0152740478515625,-0.661346435546875,-0.74468994140625
10.44,0.009753028862178326,-0.014661500230431557,-0.004746285732835531,0.014984130859375,-0.66162109375,-0.7335968017578125
10.46,-0.00697987899184227,-0.011553858406841755,-0.006537261418998241,0.013397216796875,-0.6617279052734375,-0.72833251953125
10.48,-0.004245611373335123,-0.0004021373169962317,-0.006226204335689545,0.0160675048828125,-0.6636962890625,-0.7298736572265625
10.5,-0.0024501082953065634,0.0047026099637150764,-0.001529187080450356,0.0127716064453125,-0.666717529296875,-0.73876953125
10.52,-0.01336054690182209,-0.0016397082945331931,0.0022682142443954945,0.012725830078125,-0.6595458984375,-0.740386962890625
10.54,-0.019869845360517502,-0.0013006879016757011,-0.00025539714260958135,0.01171875,-0.661956787109375,-0.738311767578125
10.56,-0.036497823894023895,0.007094128523021936,0.0029377329628914595,0.014190673828125,-0.661285400390625,-0.743896484375
10.58,-0.026578348129987717,0.007382815238088369,0.010294981300830841,0.01116943359375,-0.665771484375,-0.7455902099609375
10.6,-0.009544502943754196,0.012173575349152088,0.008409197442233562,0.016204833984375,-0.664459228515625,-0.7563934326171875
10.62,0.008362059481441975,0.018614163622260094,0.004854409955441952,0.014495849609375,-0.666229248046875,-0.757476806640625
10.64,0.01631319336593151,0.018922025337815285,-0.00009480853623244911,0.015045166015625,-0.66168212890625,-0.7587127685546875
10.66,0.01350648794323206,0.005675995256751776,0.005132976453751326,0.011810302734375,-0.664459228515625,-0.7546844482421875
10.68,0.006739661563187838,-0.005113801918923855,0.0022357236593961716,0.0121917724609375,-0.659912109375,-0.7528533935546875
10.7,0.013453757390379906,-0.015469769947230816,-0.007995608262717724,0.014801025390625,-0.6623992919921875,-0.7569427490234375
10.72,0.02328188717365265,-0.014257232658565044,-0.008027033880352974,0.016571044921875,-0.6642303466796875,-0.754669189453125
10.74,0.01828659512102604,0.0090555464848876,-0.009267800487577915,0.01220703125,-0.6617889404296875,-0.7535400390625
10.76,0.01258157193660736,0.01455843634903431,-0.01407613791525364,0.014495849609375,-0.6627349853515625,-0.7504119873046875
10.78,0.01167556457221508,0.003055977402254939,-0.007129015866667032,0.013763427734375,-0.6663055419921875,-0.7436981201171875
10.8,-0.0026133600622415543,-0.005821936298161745,0.0005619269795715809,0.015045166015625,-0.6640472412109375,-0.7370452880859375
10.82,-0.00042450788896530867,0.0006045375484973192,0.002811765531077981,0.0144805908203125,-0.663238525390625,-0.7388763427734375
10.84,-0.0019462381023913622,0.020113257691264153,0.007494934368878603,0.0144805908203125,-0.663238525390625,-0.7388763427734375
10.86,-0.01122043002396822,0.0288271214812994,0.0073170349933207035,0.011383056640625,-0.6616058349609375,-0.7407989501953125
10.88,-0.013344833627343178,0.024348482489585876,0.0046357642859220505,0.014556884765625,-0.6629791259765625,-0.7422943115234375
10.9,-0.011607919819653034,0.0178743377327919,0.009806823916733265,0.0154571533203125,-0.6646881103515625,-0.7493743896484375
10.92,-0.0008708536624908447,0.008479504846036434,0.008993761613965034,0.01611328125,-0.6631317138671875,-0.7561492919921875
10.94,0.006912501063197851,-0.006756439805030823,0.010548514313995838,0.01611328125,-0.6631317138671875,-0.7561492919921875
10.96,0.014059626497328281,-0.003944674041122198,0.0025923210196197033,0.0166168212890625,-0.66558837890625,-0.7562255859375
10.98,0.014789332635700703,0.013039369136095047,-0.0029862024821341038,0.0148773193359375,-0.6669769287109375,-0.7589263916015625
11,0.010337858460843563,0.014912104234099388,-0.0024053670931607485,0.0132904052734375,-0.6635284423828125,-0.749969482421875
11.02,-0.00039707732503302395,0.01727805659174919,-0.002153431996703148,0.0149078369140625,-0.660400390625,-0.7438812255859375
11.04,-0.0030799456872045994,0.0019233349012210965,-0.0007520766812376678,0.0131683349609375,-0.6629638671875,-0.740081787109375
11.06,0.011567173525691032,-0.00569996377453208,-0.008549812249839306,0.0152587890625,-0.6619720458984375,-0.7449798583984375
11.08,0.014535533264279366,-0.013429256156086922,-0.006403038278222084,0.016998291015625,-0.6685638427734375,-0.7509307861328125
11.1,0.010570086538791656,-0.02027171663939953,-0.009644904173910618,0.0142364501953125,-0.662078857421875,-0.752197265625
11.12,0.0026173547375947237,-0.00242187874391675,-0.01197117567062378,0.0122222900390625,-0.6617431640625,-0.750823974609375
11.14,0.0005925533478148282,-0.00027563716867007315,-0.010497115552425385,0.01605224609375,-0.6607208251953125,-0.7491455078125
11.16,0.010550378821790218,0.015243135392665863,-0.001975532853975892,0.01788330078125,-0.6663055419921875,-0.7506866455078125
11.18,0.020607007667422295,0.025831596925854683,0.005527124274522066,0.016326904296875,-0.6654510498046875,-0.74896240234375
11.2,0.01284655649214983,0.03045244701206684,0.005222725216299295,0.0137176513671875,-0.6634979248046875,-0.74298095703125
11.22,-0.00410499656572938,0.019938021898269653,0.01170326117426157,0.0135345458984375,-0.6638946533203125,-0.7361602783203125
11.24,-0.027182085439562798,0.0089404983446002,0.010381534695625305,0.0139617919921875,-0.6619110107421875,-0.7318267822265625
11.26,-0.022701317444443703,-0.01661626063287258,0.015835953876376152,0.0151519775390625,-0.6625518798828125,-0.7323760986328125
11.28,-0.006371080409735441,-0.01341647282242775,0.01278556976467371,0.015228271484375,-0.6616973876953125,-0.7461090087890625
11.3,-0.004676776938140392,-0.00407463638111949,-0.0041731735691428185,0.012542724609375,-0.6613311767578125,-0.75439453125
11.32,-0.0036107138730585575,-0.0015632755821570754,-0.014903048984706402,0.0160675048828125,-0.666290283203125,-0.7553253173828125
11.34,-0.007437409833073616,-0.0034794199746102095,-0.014014085754752159,0.0137786865234375,-0.666656494140625,-0.7537078857421875
11.36,-0.00044288369826972485,-0.012468920089304447,-0.006976416800171137,0.014801025390625,-0.6677703857421875,-0.7512664794921875
11.38,0.012573848478496075,-0.012240421026945114,-0.008923454210162163,0.01519775390625,-0.6642913818359375,-0.7498931884765625
11.4,0.006645651999861002,-0.015982428565621376,-0.0009366337326355278,0.01519775390625,-0.6642913818359375,-0.7498931884765625
11.42,-0.006214220076799393,0.0018940401496365666,0.0012301141396164894,0.0113677978515625,-0.6630859375,-0.7413330078125
11.44,-0.009150088764727116,0.013791179284453392,-0.010860903188586235,0.012359619140625,-0.6620941162109375,-0.73919677734375
11.46,-0.011182613670825958,0.003287938656285405,-0.007397462613880634,0.0132293701171875,-0.6633758544921875,-0.7397613525390625
11.48,-0.00281975488178432,-0.01321007777005434,0.0010274475207552314,0.01458740234375,-0.6641845703125,-0.7460174560546875
11.5,0.006423011887818575,-0.009323992766439915,-0.003180613275617361,0.0136871337890625,-0.664764404296875,-0.7534637451171875
11.52,0.011122426018118858,0.0010274475207552314,-0.0003787015157286078,0.014312744140625,-0.666015625,-0.755828857421875
11.54,0.01569720357656479,0.009460613131523132,0.0006996124284341931,0.013153076171875,-0.665863037109375,-0.75616455078125
11.56,0.021025655791163445,0.025769544765353203,-0.001193096162751317,0.011749267578125,-0.6635894775390625,-0.7568206787109375
11.58,0.014610900543630123,0.022760439664125443,-0.0034264230635017157,0.0137939453125,-0.663238525390625,-0.7527618408203125
11.6,0.005258411634713411,0.009341304190456867,0.00003861583536490798,0.0135650634765625,-0.6611328125,-0.7447357177734375
11.62,-0.0013763216556981206,0.008341020904481411,-0.003025617217645049,0.0124359130859375,-0.662994384765625,-0.737274169921875
11.64,-0.008656338788568974,0.01841975376009941,-0.006136988289654255,0.0143585205078125,-0.66473388671875,-0.7402801513671875
11.66,-0.008435030467808247,0.024210797622799873,-0.012513927184045315,0.0132904052734375,-0.664337158203125,-0.743804931640625
11.68,-0.011056645773351192,0.03087136335670948,-0.012952550314366817,0.0145416259765625,-0.6643218994140625,-0.7423858642578125
11.7,-0.014473747462034225,0.05101791024208069,-0.020544156432151794,0.014007568359375,-0.6584014892578125,-0.741302490234375
11.72,-0.02822817489504814,0.06179039552807808,-0.02851393260061741,0.0121612548828125,-0.662628173828125,-0.7464752197265625
11.74,-0.02328455075621605,0.05161312595009804,-0.027776770293712616,0.017791748046875,-0.66607666015625,-0.7494964599609375
11.76,-0.01882535219192505,0.029318207874894142,-0.025045432150363922,0.0189056396484375,-0.666595458984375,-0.7525482177734375
11.78,-0.005844839382916689,0.032529979944229126,-0.021566543728113174,0.02032470703125,-0.6648712158203125,-0.7539215087890625
11.8,-0.0014021543320268393,0.03988509625196457,-0.007924768142402172,0.01898193359375,-0.662750244140625,-0.7537384033203125
11.82,0.04664819687604904,0.053771354258060455,-0.005086104851216078,0.0184478759765625,-0.6591644287109375,-0.750762939453125
11.84,0.22684752941131592,0.020603811368346214,-0.04569185525178909,0.0189666748046875,-0.664703369140625,-0.7545928955078125
11.86,0.2757143974304199,-0.13977228105068207,-0.08486136049032211,0.01507568359375,-0.666168212890625,-0.779510498046875
11.88,0.11693647503852844,-0.27021685242652893,-0.12487908452749252,0.02349853515625,-0.650054931640625,-0.77008056640625
11.9,0.22878311574459076,-0.507036030292511,-0.121827632188797,0.0265655517578125,-0.6790924072265625,-0.6845855712890625
11.92,0.5291253924369812,-0.571966290473938,-0.06808557361364365,0.021148681640625,-0.67950439453125,-0.742584228515625
11.94,0.8602780103683472,-0.5214275121688843,-0.2540668845176697,0.0243682861328125,-0.6933746337890625,-0.7923583984375
11.96,1.2813255786895752,-0.6401397585868835,-0.31787171959877014,0.0158538818359375,-0.724151611328125,-0.82562255859375
11.98,1.7170706987380981,-0.8373996019363403,-0.30360621213912964,0.0117950439453125,-0.686920166015625,-0.7435150146484375
12,1.8582179546356201,-0.841768205165863,-0.42595502734184265,0.0390472412109375,-0.762542724609375,-0.7346954345703125
12.02,1.076228380203247,-0.5654231905937195,-0.5727860331535339,-0.016998291015625,-0.694183349609375,-0.6855316162109375
12.04,0.19852960109710693,-0.22753168642520905,-0.5840541124343872,-0.025665283203125,-0.799591064453125,-0.5599365234375
12.06,-0.4678708016872406,0.2029874622821808,-0.4489586353302002,-0.0605621337890625,-0.73541259765625,-0.4931793212890625
12.08,-1.0980018377304077,0.5765109658241272,-0.36723899841308594,-0.050445556640625,-0.7500152587890625,-0.457427978515625
12.1,-1.4003965854644775,0.6483798623085022,-0.10119559615850449,-0.050445556640625,-0.7500152587890625,-0.457427978515625
12.12,-1.2237358093261719,0.8492951393127441,0.3729056715965271,-0.050933837890625,-0.6870574951171875,-0.5317230224609375
12.14,-0.5585721731185913,0.881218433380127,0.7355855703353882,0.10601806640625,-0.76043701171875,-0.6964569091796875
12.16,-0.19306479394435883,0.6830043792724609,0.8696355223655701,0.0895843505859375,-0.7833404541015625,-0.845550537109375
12.18,-0.19756421446800232,0.5648213028907776,0.7938883304595947,0.0677032470703125,-0.7151947021484375,-0.83453369140625
12.2,-0.15291498601436615,0.35391145944595337,0.7942726016044617,0.0244903564453125,-0.717376708984375,-0.732025146484375
12.22,-0.07172531634569168,0.19603368639945984,0.761821985244751,0.01446533203125,-0.71868896484375,-0.73297119140625
12.24,-0.10286486148834229,0.1116839200258255,0.5052277445793152,0.041107177734375,-0.706268310546875,-0.7365570068359375
12.26,-0.14273132383823395,0.016867663711309433,0.24006132781505585,0.028167724609375,-0.709991455078125,-0.737640380859375
12.28,-0.05457935482263565,-0.22818151116371155,0.17657184600830078,0.0230560302734375,-0.7138519287109375,-0.7324676513671875
12.3,0.017728131264448166,-0.4655120372772217,0.23965014517307281,-0.0123138427734375,-0.6934051513671875,-0.7363128662109375
12.32,-0.03541950881481171,-0.7012500166893005,0.3330796957015991,-0.0045928955078125,-0.66546630859375,-0.7451934814453125
12.34,-0.09702907502651215,-0.677768886089325,0.32354745268821716,0.01141357421875,-0.6810760498046875,-0.727935791015625
12.36,-0.1278786063194275,-0.3304290473461151,0.19864411652088165,-0.0352325439453125,-0.7254791259765625,-0.7099151611328125
12.38,-0.09052670001983643,-0.1316128820180893,0.09726876020431519,-0.06756591796875,-0.71026611328125,-0.7011871337890625
12.4,0.06214672699570656,0.08438119292259216,0.031982701271772385,-0.066680908203125,-0.706390380859375,-0.726043701171875
12.42,0.1501234620809555,0.301823228597641,-0.0589061938226223,-0.0518341064453125,-0.70574951171875,-0.756072998046875
12.44,0.1522768884897232,0.3317560851573944,-0.08268582820892334,-0.060272216796875,-0.730255126953125,-0.727874755859375
12.46,0.14839746057987213,0.2791464328765869,-0.08612582832574844,-0.05413818359375,-0.7176055908203125,-0.701385498046875
12.48,0.07375704497098923,0.22471299767494202,-0.05251380801200867,-0.040802001953125,-0.703582763671875,-0.692108154296875
12.5,0.07534828037023544,0.31081992387771606,-0.06263355165719986,-0.019744873046875,-0.6853179931640625,-0.68072509765625
12.52,0.22068257629871368,0.24778211116790771,-0.17050889134407043,-0.0262298583984375,-0.7076568603515625,-0.69964599609375
12.54,0.36831411719322205,0.12095065414905548,-0.22672368586063385,-0.039306640625,-0.7294464111328125,-0.7331695556640625
12.56,0.320159375667572,0.024750087410211563,-0.23245029151439667,-0.0192413330078125,-0.70880126953125,-0.7218780517578125
12.58,0.18911400437355042,-0.011241735890507698,-0.19846861064434052,-0.004364013671875,-0.6874542236328125,-0.67901611328125
12.6,0.0981646478176117,0.12030164152383804,-0.2674817740917206,-0.0015106201171875,-0.68914794921875,-0.678955078125
12.62,0.22092598676681519,0.24525609612464905,-0.29742342233657837,-0.033660888671875,-0.7168426513671875,-0.6941375732421875
12.64,0.4647839367389679,0.12309982627630234,-0.2690429091453552,-0.037506103515625,-0.7564697265625,-0.68316650390625
12.66,0.7444645762443542,0.16089248657226562,-0.2655264735221863,-0.016021728515625,-0.7032623291015625,-0.729248046875
12.68,0.7327759861946106,0.15481168031692505,-0.22374388575553894,0.0224761962890625,-0.7423248291015625,-0.6691131591796875
12.7,0.5152077078819275,0.14776203036308289,-0.169499009847641,0.0224761962890625,-0.7423248291015625,-0.6691131591796875
12.72,0.2778526544570923,0.15403351187705994,-0.2139144241809845,0.0347747802734375,-0.7637481689453125,-0.613922119140625
12.74,0.10305554419755936,0.07106352597475052,-0.23327453434467316,-0.0058441162109375,-0.7855987548828125,-0.555084228515625
12.76,-0.018244517967104912,-0.1414434164762497,-0.17385993897914886,0.0282745361328125,-0.7727508544921875,-0.54693603515625
12.78,-0.08755648136138916,-0.04349154978990555,-0.11050520837306976,0.0569915771484375,-0.7679901123046875,-0.5648040771484375
12.8,-0.1419384926557541,0.16949422657489777,-0.09760192036628723,0.0440673828125,-0.770233154296875,-0.612213134765625
12.82,-0.17026387155056,0.32440683245658875,-0.05552291497588158,-0.0040740966796875,-0.7785186767578125,-0.616912841796875
12.84,-0.05495539307594299,0.4117017984390259,-0.01528814248740673,0.018768310546875,-0.75653076171875,-0.63739013671875
12.86,0.11899163573980331,0.3183329701423645,-0.01600799523293972,0.0391998291015625,-0.7662200927734375,-0.6836700439453125
12.88,0.11681956052780151,0.16337960958480835,-0.05945879966020584,0.061309814453125,-0.7589263916015625,-0.6726226806640625
12.9,-0.09543384611606598,-0.04914597421884537,-0.026140257716178894,0.0755157470703125,-0.7694244384765625,-0.6047515869140625
12.92,-0.28348231315612793,-0.045470014214515686,0.07616161555051804,0.09393310546875,-0.7570037841796875,-0.558074951171875
12.94,-0.30524566769599915,-0.00589703768491745,0.12542156875133514,0.093719482421875,-0.7318115234375,-0.6060791015625
12.96,-0.262516051530838,-0.01672252081334591,0.0969499796628952,0.0735015869140625,-0.728271484375,-0.6741485595703125
12.98,-0.21741807460784912,-0.04853744059801102,0.09134962409734726,0.0551605224609375,-0.7457275390625,-0.7036590576171875
13,-0.1793055683374405,-0.11230896413326263,0.14506052434444427,0.07427978515625,-0.7558746337890625,-0.7104644775390625
13.02,-0.1343628615140915,-0.0707644522190094,0.1309202015399933,0.0823516845703125,-0.761016845703125,-0.7207489013671875
13.04,-0.06639420241117477,0.0298998411744833,0.020966799929738045,0.0336456298828125,-0.7599639892578125,-0.7313690185546875
13.06,0.01955878734588623,0.048238903284072876,-0.05874880030751228,0.00030517578125,-0.7627716064453125,-0.7362823486328125
13.08,0.10113673657178879,0.05734318494796753,-0.022842997685074806,0.018402099609375,-0.7390899658203125,-0.7231292724609375
13.1,0.12012827396392822,0.09538803994655609,0.05036064237356186,0.0633392333984375,-0.72027587890625,-0.7129058837890625
13.12,0.058761849999427795,0.11542912572622299,0.078864187002182,0.071685791015625,-0.7304534912109375,-0.64056396484375
13.14,-0.00697774812579155,0.09452011436223984,0.05512530356645584,0.071685791015625,-0.7304534912109375,-0.64056396484375
13.16,-0.01420530118048191,0.07325983047485352,0.017049290239810944,0.0545654296875,-0.7352447509765625,-0.620208740234375
13.18,-0.005278651602566242,0.05091297999024391,0.03303464874625206,0.0441436767578125,-0.7378997802734375,-0.634918212890625
13.2,-0.010785269550979137,0.02502652443945408,0.12026382982730865,0.0598297119140625,-0.7157440185546875,-0.634490966796875
13.22,-0.0398574024438858,-0.0014061490073800087,0.15783463418483734,0.0790863037109375,-0.717193603515625,-0.6386871337890625
13.24,-0.0985281690955162,-0.012227104976773262,0.14465704560279846,0.059967041015625,-0.736846923828125,-0.638702392578125
13.26,-0.15798909962177277,0.02099582925438881,0.10005176812410355,0.038238525390625,-0.75421142578125,-0.634552001953125
13.28,-0.16316761076450348,0.038847796618938446,0.049072206020355225,0.0232696533203125,-0.7659912109375,-0.6450958251953125
13.3,-0.0889090970158577,-0.0031222901307046413,0.042087797075510025,0.010711669921875,-0.754058837890625,-0.6583099365234375
13.32,0.023507723584771156,-0.0368882417678833,0.06655000150203705,0.02813720703125,-0.7456817626953125,-0.6804046630859375
13.34,0.10575199872255325,-0.12094852328300476,0.0703338161110878,0.0386962890625,-0.7375946044921875,-0.6911468505859375
13.36,0.10978268831968307,-0.09773960709571838,0.054300788789987564,0.030364990234375,-0.7489776611328125,-0.6805419921875
13.38,0.05434446409344673,-0.05621720105409622,0.03381495550274849,0.01678466796875,-0.752410888671875,-0.670013427734375
13.4,0.01315068919211626,-0.05032016336917877,0.021440044045448303,0.008026123046875,-0.7523193359375,-0.6584014892578125
13.42,0.015487080439925194,-0.07151146978139877,0.04181482642889023,0.0279388427734375,-0.7460479736328125,-0.654541015625
13.44,0.025496039539575577,-0.09316882491111755,0.04686390981078148,0.041290283203125,-0.731475830078125,-0.6634674072265625
13.46,0.04301963746547699,-0.08991337567567825,0.05602705106139183,0.0324249267578125,-0.72283935546875,-0.666290283203125
13.48,0.11713940650224686,-0.15474723279476166,0.13274259865283966,0.0431671142578125,-0.7233734130859375,-0.6754302978515625
13.5,0.19905397295951843,-0.19445788860321045,0.2217867225408554,0.0654144287109375,-0.69708251953125,-0.6848602294921875
13.52,0.15954917669296265,-0.12713797390460968,0.22067725658416748,0.0794525146484375,-0.6996307373046875,-0.69268798828125
13.54,0.04923572391271591,-0.06029423326253891,0.2091449648141861,0.0432586669921875,-0.720794677734375,-0.6693115234375
13.56,-0.02593945525586605,-0.060089435428380966,0.21897947788238525,0.02081298828125,-0.742767333984375,-0.6530303955078125
13.58,-0.027516845613718033,-0.08062027394771576,0.22390739619731903,0.0194854736328125,-0.751312255859375,-0.66033935546875
13.6,0.029697176069021225,-0.023317040875554085,0.17295020818710327,0.004638671875,-0.765777587890625,-0.68548583984375
13.62,0.10363531857728958,0.031066838651895523,0.09918996691703796,-0.0233001708984375,-0.77947998046875,-0.7056732177734375
13.64,0.14736947417259216,0.024750087410211563,0.07842210680246353,-0.0357513427734375,-0.77789306640625,-0.695587158203125
13.66,0.16505739092826843,-0.02203153260052204,0.10050157457590103,-0.023345947265625,-0.7654571533203125,-0.66107177734375
13.68,0.17763550579547882,-0.10050157457590103,0.13852138817310333,-0.01226806640625,-0.7529449462890625,-0.6318359375
13.7,0.15379329025745392,-0.1265491545200348,0.11497265845537186,-0.013092041015625,-0.7532806396484375,-0.616424560546875
13.72,0.04154185205698013,-0.053530603647232056,0.06489404290914536,-0.0322723388671875,-0.76849365234375,-0.615814208984375
13.74,-0.09259038418531418,0.021683191880583763,0.015270831994712353,-0.058685302734375,-0.7847442626953125,-0.6175384521484375
13.76,-0.1366819441318512,-0.018194450065493584,-0.03135552629828453,-0.066680908203125,-0.79632568359375,-0.6172332763671875
13.78,-0.10904392600059509,-0.0628516674041748,-0.0648500993847847,-0.0647125244140625,-0.794189453125,-0.6327362060546875
13.8,-0.07061877846717834,-0.0538451224565506,-0.07502391189336777,-0.04815673828125,-0.781768798828125,-0.6613616943359375
13.82,-0.05885319784283638,0.019645074382424355,-0.08012466132640839,-0.02801513671875,-0.76702880859375,-0.6830902099609375
13.84,-0.0523042157292366,0.062038604170084,-0.09632973372936249,-0.021759033203125,-0.759246826171875,-0.695281982421875
13.86,-0.008617190644145012,0.037447240203619,-0.09984111040830612,-0.02130126953125,-0.75634765625,-0.692535400390625
13.88,0.06634093821048737,-0.021260546520352364,-0.06849836558103561,-0.0019989013671875,-0.7567291259765625,-0.68890380859375
13.9,0.12790682911872864,-0.03672818839550018,-0.03647411987185478,0.01708984375,-0.73968505859375,-0.6831207275390625
13.92,0.1254604458808899,-0.023076556622982025,-0.02943405508995056,0.0138702392578125,-0.729156494140625,-0.67523193359375
13.94,0.048051416873931885,0.022168951109051704,-0.018936673179268837,0.0063629150390625,-0.7325592041015625,-0.647705078125
13.96,-0.01799258217215538,0.028135763481259346,-0.003337739733979106,0.00152587890625,-0.744384765625,-0.6313934326171875
13.98,-0.017468472942709923,-0.005224322900176048,0.02136441133916378,0.000640869140625,-0.744842529296875,-0.6274566650390625
14,-0.00044341632747091353,-0.029992520809173584,0.009428922086954117,-0.0151824951171875,-0.7527313232421875,-0.655181884765625
14.02,-0.004327370319515467,0.014207432046532631,-0.013616742566227913,-0.0151824951171875,-0.7527313232421875,-0.655181884765625
14.04,-0.02484969049692154,0.061949387192726135,-0.003747866488993168,-0.015167236328125,-0.757415771484375,-0.6647491455078125
14.06,0.00341523764654994,0.044314466416835785,0.016139289364218712,-0.007080078125,-0.7632293701171875,-0.6627655029296875
14.08,0.06385833770036697,-0.004358529578894377,0.02203552797436714,-0.00213623046875,-0.76275634765625,-0.66534423828125
14.1,0.08524245768785477,-0.014301175251603127,-0.01077062264084816,-0.0090179443359375,-0.7591705322265625,-0.65838623046875
14.12,0.049611229449510574,0.01070777140557766,-0.02702416107058525,-0.02685546875,-0.7540435791015625,-0.6451568603515625
14.14,-0.016344618052244186,0.019347598776221275,-0.024346085265278816,-0.022308349609375,-0.7542724609375,-0.6319580078125
14.16,-0.05955840274691582,0.020620590075850487,0.005268797744065523,-0.0113067626953125,-0.755126953125,-0.623687744140625
14.18,-0.05431623384356499,-0.004859469830989838,0.015279886312782764,-0.0030975341796875,-0.7582855224609375,-0.63397216796875
14.2,-0.002679672557860613,-0.009320797398686409,-0.00036698358599096537,-0.0013580322265625,-0.7593231201171875,-0.6524200439453125
14.22,0.03838200867176056,-0.005018460564315319,-0.02804601565003395,-0.012664794921875,-0.7588348388671875,-0.6694183349609375
14.24,0.03815164789557457,-0.008449144661426544,-0.027653997763991356,-0.003326416015625,-0.7541351318359375,-0.65338134765625
14.26,0.027597272768616676,0.00558092026039958,0.030675621703267097,-0.003326416015625,-0.7541351318359375,-0.65338134765625
14.28,0.04379701614379883,0.007551925722509623,0.07595095783472061,0.0190887451171875,-0.7433013916015625,-0.65325927734375
14.3,0.09910900890827179,-0.01218476053327322,0.05880552530288696,0.0090789794921875,-0.7464447021484375,-0.6588592529296875
14.32,0.18260842561721802,-0.05393407121300697,0.019720707088708878,-0.01739501953125,-0.75909423828125,-0.663726806640625
14.34,0.2244301736354828,-0.10586118698120117,0.0163041390478611,-0.02117919921875,-0.76739501953125,-0.6645050048828125
14.36,0.20265324413776398,-0.11046525835990906,0.06007079407572746,-0.01373291015625,-0.7653045654296875,-0.6476287841796875
14.38,0.1548289954662323,-0.03837215527892113,0.0846368595957756,-0.00225830078125,-0.75457763671875,-0.6317138671875
14.4,0.09022070467472076,0.008250206708908081,0.020555075258016586,-0.0150146484375,-0.7625732421875,-0.6358642578125
14.42,-0.007527690846472979,-0.002389121800661087,-0.02857758291065693,-0.0429534912109375,-0.775360107421875,-0.6202239990234375
14.44,-0.05842176452279091,-0.015107846818864346,-0.028305673971772194,-0.04119873046875,-0.7898101806640625,-0.59893798828125
14.46,-0.034932948648929596,0.014511298388242722,-0.02503664419054985,-0.0284423828125,-0.7796630859375,-0.6119842529296875
14.48,-0.010185259394347668,0.020592359825968742,-0.02779354713857174,-0.0231170654296875,-0.7668609619140625,-0.642242431640625
14.5,-0.03555746003985405,0.021829398348927498,-0.024590032175183296,-0.0222320556640625,-0.7598876953125,-0.6395416259765625
14.52,-0.08245279639959335,0.021508220583200455,-0.008106395602226257,-0.0153045654296875,-0.7639617919921875,-0.6292572021484375
14.54,-0.11065700650215149,0.011567173525691032,0.021797707304358482,-0.0011444091796875,-0.759918212890625,-0.6198272705078125
14.56,-0.07679464668035507,0.012488894164562225,0.018223213031888008,-0.000091552734375,-0.7569732666015625,-0.6270751953125
14.58,-0.018323346972465515,0.0016972325975075364,0.012941365130245686,-0.0088958740234375,-0.7567138671875,-0.649627685546875
14.6,0.002086320426315069,0.008451541885733604,0.024811074137687683,-0.009185791015625,-0.759063720703125,-0.6571044921875
14.62,-0.017063938081264496,0.016045812517404556,0.025614550337195396,-0.0177154541015625,-0.767364501953125,-0.6501007080078125
14.64,-0.035163845866918564,0.005546299275010824,0.03203196823596954,-0.02294921875,-0.774017333984375,-0.6398468017578125
14.66,-0.03690715134143829,-0.00392896169796586,-0.0018876485992223024,-0.0242767333984375,-0.77691650390625,-0.6414337158203125
14.68,-0.0460527129471302,-0.017727598547935486,-0.04537893459200859,-0.0423736572265625,-0.7790374755859375,-0.6426544189453125
14.7,-0.04108485206961632,-0.02629152499139309,-0.053469616919755936,-0.0391387939453125,-0.7828369140625,-0.6432647705078125
14.72,-0.030160032212734222,-0.0062246061861515045,-0.0556587353348732,-0.0294342041015625,-0.7768707275390625,-0.64739990234375
14.74,-0.002239984693005681,0.0296750720590353,-0.05295642465353012,-0.0240936279296875,-0.7736968994140625,-0.655914306640625
14.76,0.0020868529099971056,0.020169716328382492,-0.059063851833343506,-0.0218505859375,-0.7631072998046875,-0.6585693359375
14.78,-0.0275578573346138,-0.011697668582201004,-0.04808470606803894,-0.0170745849609375,-0.7576751708984375,-0.6401214599609375
14.8,-0.05877543240785599,-0.027152525261044502,-0.043706733733415604,-0.0042877197265625,-0.75408935546875,-0.623260498046875
14.82,-0.08563527464866638,-0.015179218724370003,-0.035781700164079666,-0.0069732666015625,-0.755706787109375,-0.6222381591796875
14.84,-0.07151546329259872,-0.01757020503282547,-0.00896579772233963,-0.0036163330078125,-0.750823974609375,-0.632537841796875
14.86,-0.00213612150400877,-0.07925886660814285,0.0044136568903923035,0.0068511962890625,-0.74676513671875,-0.641204833984375
14.88,0.02779514528810978,-0.07662659883499146,-0.00381391285918653,-0.0004730224609375,-0.746368408203125,-0.6507415771484375
14.9,0.005004079546779394,-0.006958040874451399,0.02594131976366043,-0.015533447265625,-0.7489471435546875,-0.6499481201171875
14.92,-0.017432786524295807,-0.02972034551203251,0.039142075926065445,-0.0096893310546875,-0.752716064453125,-0.6461181640625
14.94,-0.022490128874778748,-0.05018966645002365,0.03458487614989281,-0.014312744140625,-0.762969970703125,-0.643768310546875
14.96,-0.024324513971805573,-0.03526344895362854,0.024029701948165894,-0.0270538330078125,-0.771820068359375,-0.653045654296875
14.98,-0.017226923257112503,-0.020687967538833618,-0.010598848573863506,-0.03692626953125,-0.776092529296875,-0.6735992431640625
15,-0.013363742269575596,-0.009074188768863678,-0.05146132782101631,-0.03692626953125,-0.776092529296875,-0.6735992431640625
15.02,-0.006621417589485645,-0.003973170183598995,-0.0715162605047226,-0.0331573486328125,-0.7792510986328125,-0.6761627197265625
15.04,0.018498849123716354,0.008594021201133728,-0.0680975615978241,-0.0312652587890625,-0.7707366943359375,-0.674102783203125
15.06,0.05849872902035713,0.017246365547180176,-0.03647918254137039,-0.01812744140625,-0.760650634765625,-0.6754150390625
15.08,0.09675663709640503,0.008824383839964867,-0.026614833623170853,-0.0017852783203125,-0.7518310546875,-0.67791748046875
15.1,0.09891752898693085,0.016041018068790436,-0.04120922088623047,-0.0048675537109375,-0.753631591796875,-0.66473388671875
15.12,0.07962212711572647,0.010730142705142498,-0.02028556354343891,-0.009796142578125,-0.75689697265625,-0.650360107421875
15.14,0.05519561097025871,-0.009336243383586407,0.021686119958758354,-0.001251220703125,-0.749176025390625,-0.6307220458984375
15.16,0.03482109680771828,-0.012475045397877693,0.0572824627161026,0.010986328125,-0.7403564453125,-0.6212921142578125
15.18,-0.0003259709046687931,0.0038538603112101555,0.04960031062364578,0.0073699951171875,-0.7391815185546875,-0.6205596923828125
15.2,-0.004884770140051842,0.013559484854340553,0.018260229378938675,-0.0160675048828125,-0.751190185546875,-0.620208740234375
15.22,0.006514624692499638,-0.029152026399970055,0.015432751737535,-0.029296875,-0.7588043212890625,-0.63079833984375
15.24,-0.005829926114529371,-0.04888205602765083,0.04692250117659569,-0.008544921875,-0.7612762451171875,-0.6349334716796875
15.26,-0.029256422072649002,-0.007102117873728275,0.03422854468226433,-0.006591796875,-0.7614288330078125,-0.6410675048828125
15.28,-0.023064039647579193,0.022549517452716827,0.015242069959640503,-0.0240325927734375,-0.7696075439453125,-0.652923583984375
15.3,0.00878949649631977,0.01284602377563715,0.02233300171792507,-0.02398681640625,-0.7698516845703125,-0.6652679443359375
15.32,0.050520963966846466,-0.010118946433067322,0.0294891819357872,-0.0136260986328125,-0.7657928466796875,-0.66766357421875
15.34,0.07017376273870468,-0.03422641381621361,0.02725345827639103,-0.0165252685546875,-0.7664794921875,-0.6624755859375
15.36,0.062430355697870255,-0.012652678415179253,0.007730357814580202,-0.0234527587890625,-0.76910400390625,-0.649261474609375
15.38,0.03818946331739426,0.02961515076458454,0.0028099012561142445,-0.0342864990234375,-0.7728271484375,-0.645172119140625
15.4,0.023858994245529175,0.011606588959693909,0.004056793171912432,-0.0374908447265625,-0.7700042724609375,-0.638275146484375
15.42,0.024508804082870483,-0.012661466374993324,-0.0037505298387259245,-0.0264434814453125,-0.7753753662109375,-0.63336181640625
15.44,0.024717863649129868,-0.007063501980155706,-0.014358166605234146,-0.0303802490234375,-0.7745513916015625,-0.631988525390625
15.46,0.02630031295120716,0.009109342470765114,-0.02413862571120262,-0.0317840576171875,-0.772674560546875,-0.636566162109375
15.48,0.017618408426642418,-0.01315308641642332,-0.04108245670795441,-0.0308380126953125,-0.768402099609375,-0.6372528076171875
15.5,-0.006683468818664551,-0.03242718055844307,-0.026218820363283157,-0.023223876953125,-0.7667999267578125,-0.6280517578125
15.52,-0.0275631844997406,-0.033012811094522476,0.0008777778712101281,-0.0121612548828125,-0.7650909423828125,-0.6231689453125
15.54,-0.018851185217499733,-0.0013725932221859694,-0.0033774208277463913,-0.0124359130859375,-0.7572021484375,-0.63616943359375
15.56,-0.005131645128130913,0.010750648565590382,-0.013216469436883926,-0.0158538818359375,-0.7584228515625,-0.65313720703125
15.58,0.001234641415067017,0.003863980295136571,0.0024194817524403334,-0.016326904296875,-0.764801025390625,-0.6533203125
15.6,0.01272857841104269,-0.01432381197810173,0.015660185366868973,-0.011627197265625,-0.7667694091796875,-0.6505584716796875
15.62,0.018069282174110413,0.02040647156536579,0.008586830459535122,-0.0155181884765625,-0.764739990234375,-0.64935302734375
15.64,0.024929318577051163,0.04817711561918259,-0.004867726005613804,-0.0247039794921875,-0.7728271484375,-0.656158447265625
15.66,0.017557155340909958,0.028488632291555405,-0.02624252252280712,-0.031982421875,-0.7757415771484375,-0.64605712890625
15.68,0.004402471706271172,0.014129667542874813,-0.01577203907072544,-0.030487060546875,-0.773406982421875,-0.627471923828125
15.7,-0.03014139086008072,0.012449478730559349,-0.007186806295067072,-0.0166168212890625,-0.763031005859375,-0.616912841796875
15.72,-0.046967241913080215,-0.0232283566147089,-0.014060957357287407,-0.021087646484375,-0.7609405517578125,-0.60906982421875
15.74,-0.05897117406129837,-0.04279140755534172,-0.013861220329999924,-0.023712158203125,-0.767181396484375,-0.6105804443359375
15.76,-0.08132468163967133,0.001568069215863943,-0.014117150567471981,-0.019439697265625,-0.765716552734375,-0.6228790283203125
15.78,-0.09824773669242859,0.01840750314295292,-0.002311623888090253,-0.023956298828125,-0.7647552490234375,-0.63714599609375
15.8,-0.08854024857282639,0.030616499483585358,0.031374167650938034,-0.0142364501953125,-0.76214599609375,-0.65020751953125
15.82,-0.10494372248649597,0.04402604699134827,0.06163913011550903,-0.0056610107421875,-0.7593231201171875,-0.6627044677734375
15.84,-0.17012405395507812,0.12111763656139374,0.09846079349517822,-0.0048370361328125,-0.7531890869140625,-0.6607513427734375
15.86,-0.20988506078720093,0.15253601968288422,0.11846192926168442,-0.0066680908203125,-0.7501983642578125,-0.6571197509765625
15.88,-0.1283734142780304,0.022480009123682976,0.06909091770648956,-0.01153564453125,-0.754302978515625,-0.6524200439453125
15.9,0.00720678037032485,-0.06268761307001114,-0.009828129783272743,-0.0261077880859375,-0.768707275390625,-0.66400146484375
15.92,0.075194351375103,-0.02022191509604454,-0.014827415347099304,-0.03228759765625,-0.7670745849609375,-0.6888275146484375
15.94,0.08327038586139679,0.049011483788490295,0.014405304566025734,-0.0227508544921875,-0.7568817138671875,-0.699066162109375
15.96,0.07876192033290863,0.02713548019528389,0.016875119879841805,-0.01531982421875,-0.7504425048828125,-0.680419921875
15.98,0.05926278978586197,-0.005078115500509739,0.007924501784145832,-0.0171661376953125,-0.7584075927734375,-0.6495819091796875
16,0.030942469835281372,0.014187191613018513,-0.00549356872215867,-0.0242462158203125,-0.756317138671875,-0.6343536376953125
16.02,0.0049494849517941475,0.02328694611787796,-0.006077333353459835,-0.0303192138671875,-0.75506591796875,-0.63037109375
16.04,-0.015955796465277672,0.013652961701154709,0.010720821097493172,-0.0225372314453125,-0.75274658203125,-0.6291046142578125
16.06,-0.022911973297595978,-0.014859906397759914,0.013717410154640675,-0.018707275390625,-0.7555999755859375,-0.627685546875
16.08,-0.022236064076423645,-0.005883188918232918,0.00749093946069479,-0.0198974609375,-0.757232666015625,-0.633697509765625
16.1,-0.03965739905834198,0.0070917317643761635,0.0008351673022843897,-0.0255279541015625,-0.7568817138671875,-0.6457672119140625
16.12,-0.051540687680244446,0.008444351144134998,0.008952216245234013,-0.0255279541015625,-0.7568817138671875,-0.6457672119140625
16.14,-0.03663124889135361,-0.014284662902355194,0.0062760054133832455,-0.01824951171875,-0.75677490234375,-0.6495208740234375
16.16,-0.013525662012398243,-0.012682239525020123,0.006019276566803455,-0.0189666748046875,-0.7592926025390625,-0.6580963134765625
16.18,0.011035873554646969,0.0034205641131848097,0.005401689559221268,-0.0227203369140625,-0.7604522705078125,-0.6692352294921875
16.2,0.0370807908475399,0.02400546707212925,0.006913566030561924,-0.0230560302734375,-0.75848388671875,-0.671600341796875
16.22,0.04740187153220177,0.005881857592612505,0.025657160207629204,-0.01300048828125,-0.7512969970703125,-0.6559295654296875
16.24,0.03989308699965477,-0.01471529621630907,0.024147147312760353,-0.01300048828125,-0.7512969970703125,-0.6559295654296875
16.26,0.015846341848373413,-0.001443166984245181,-0.003064765827730298,-0.0207061767578125,-0.7576141357421875,-0.6452789306640625
16.28,-0.008230232633650303,0.030464431270956993,-0.00455800024792552,-0.0318756103515625,-0.7607574462890625,-0.643798828125
16.3,-0.010454238392412663,0.02340172976255417,0.008112787269055843,-0.0244598388671875,-0.7566375732421875,-0.64532470703125
16.32,0.004238686989992857,0.0070342072285711765,0.02238333597779274,-0.015869140625,-0.751983642578125,-0.6486358642578125
16.34,0.009641974233090878,-0.004530835896730423,0.018435467034578323,-0.015899658203125,-0.7530364990234375,-0.653289794921875
16.36,0.016158996149897575,-0.024885641410946846,0.002981142606586218,-0.0249176025390625,-0.755157470703125,-0.64739990234375
16.38,0.008611331693828106,0.007390271872282028,-0.00458569684997201,-0.0279541015625,-0.7607421875,-0.64813232421875
16.4,-0.0017041567480191588,0.024596955627202988,0.002942260354757309,-0.0266876220703125,-0.7617034912109375,-0.6520538330078125
16.42,-0.011404721066355705,0.01158874575048685,0.01932629384100437,-0.0195465087890625,-0.7569580078125,-0.645477294921875
16.44,0.0015598133904859424,-0.004604871850460768,0.021137509495019913,-0.0199432373046875,-0.7537384033203125,-0.6429443359375
16.46,0.002046905690804124,-0.013318202458322048,0.020676249638199806,-0.0242156982421875,-0.7523956298828125,-0.64276123046875
16.48,-0.012114453129470348,-0.005648564547300339,0.010749849490821362,-0.024017333984375,-0.755615234375,-0.6419830322265625
16.5,-0.020533503964543343,-0.02430640533566475,-0.002267149044200778,-0.0306854248046875,-0.7617340087890625,-0.6426849365234375
16.52,-0.012432168237864971,-0.05380197986960411,-0.016763534396886826,-0.0330047607421875,-0.7635955810546875,-0.6426544189453125
16.54,0.0067540425807237625,-0.06256484240293503,-0.025482190772891045,-0.032073974609375,-0.766387939453125,-0.64898681640625
16.56,0.006385195069015026,-0.01218689139932394,-0.024209465831518173,-0.0323486328125,-0.7651214599609375,-0.6625518798828125
16.58,0.003668504301458597,0.006720753386616707,-0.02027837373316288,-0.0336761474609375,-0.761962890625,-0.6704864501953125
16.6,0.005147091578692198,-0.007322094868868589,-0.02708541415631771,-0.032257080078125,-0.766143798828125,-0.6652984619140625
16.62,0.021408353000879288,-0.029445506632328033,-0.03657372295856476,-0.035247802734375,-0.764984130859375,-0.6582794189453125
16.64,0.02002723701298237,-0.012583702802658081,-0.040347423404455185,-0.0293121337890625,-0.7612457275390625,-0.6632232666015625
16.66,0.02611229382455349,0.028295820578932762,-0.044929392635822296,-0.0243377685546875,-0.7591094970703125,-0.66668701171875
16.68,0.040133036673069,0.041307225823402405,-0.029041504487395287,-0.0209808349609375,-0.754547119140625,-0.6684417724609375
16.7,0.0378083661198616,0.009762083180248737,0.00009161273919744417,-0.0085296630859375,-0.749481201171875,-0.6587066650390625
16.72,0.021263210102915764,-0.000827177835162729,0.017048224806785583,-0.0026092529296875,-0.741912841796875,-0.6424560546875
16.74,-0.004592088516801596,0.018196580931544304,0.01780189946293831,-0.0093231201171875,-0.7416534423828125,-0.636444091796875
16.76,-0.023980965837836266,0.04256477206945419,0.021923940628767014,-0.014556884765625,-0.74749755859375,-0.6404876708984375
16.78,-0.01865224726498127,0.03147536888718605,0.014796257019042969,-0.0205230712890625,-0.7550201416015625,-0.646820068359375
16.8,0.00025007082149386406,0.005456816870719194,0.0174437053501606,-0.0215911865234375,-0.76153564453125,-0.6509246826171875
16.82,0.013902232982218266,0.002129463478922844,0.020482638850808144,-0.0242462158203125,-0.7619171142578125,-0.654541015625
16.84,0.02744627185165882,0.008767126128077507,0.005476790945976973,-0.028167724609375,-0.761627197265625,-0.6596527099609375
16.86,0.03592684119939804,0.02056892402470112,-0.008983108215034008,-0.0311737060546875,-0.76580810546875,-0.662200927734375
16.88,0.033793117851018906,0.02315698377788067,-0.017533186823129654,-0.0326385498046875,-0.76861572265625,-0.6619110107421875
16.9,0.03382560610771179,0.0068240840919315815,-0.006530869752168655,-0.02838134765625,-0.7678985595703125,-0.6528472900390625
16.92,0.036912743002176285,-0.004889830015599728,-0.008374043740332127,-0.02252197265625,-0.759735107421875,-0.6507415771484375
16.94,0.05180487409234047,0.010015349835157394,-0.0265988539904356,-0.024200439453125,-0.7611541748046875,-0.6510467529296875
16.96,0.06125190481543541,0.01327186357229948,-0.032952625304460526,-0.0323486328125,-0.764556884765625,-0.6551513671875
16.98,0.071168452501297,-0.00495081627741456,-0.02995949611067772,-0.023193359375,-0.7640838623046875,-0.6525115966796875
17,0.08316253125667572,-0.0009395632077939808,-0.014102502726018429,-0.0112457275390625,-0.764068603515625,-0.6426239013671875
17.02,0.08846302330493927,-0.019335348159074783,-0.019347332417964935,-0.016876220703125,-0.75494384765625,-0.637359619140625
17.04,0.06946216523647308,-0.02665477991104126,-0.014735270291566849,-0.023162841796875,-0.75579833984375,-0.6306304931640625
17.06,0.02461799420416355,-0.011810853146016598,0.0002620550512801856,-0.014129638671875,-0.760986328125,-0.618408203125
17.08,-0.017591509968042374,0.015988819301128387,-0.0041761030443012714,-0.014129638671875,-0.760986328125,-0.618408203125
17.1,-0.044382378458976746,0.015840481966733932,-0.001969673903658986,-0.0215911865234375,-0.761932373046875,-0.6234588623046875
17.12,-0.04990604147315025,0.015182681381702423,0.007171093951910734,-0.020599365234375,-0.7605133056640625,-0.6259307861328125
17.14,-0.046190664172172546,0.0044410875998437405,0.007782822009176016,-0.01519775390625,-0.7597198486328125,-0.634185791015625
17.16,-0.04482952132821083,0.021212877705693245,0.01438213512301445,-0.0156097412109375,-0.758880615234375,-0.6414794921875
17.18,-0.04631423577666283,0.03755642846226692,0.024206802248954773,-0.0130767822265625,-0.761138916015625,-0.6462249755859375
17.2,-0.04757337644696236,0.03393905982375145,0.018851451575756073,-0.015106201171875,-0.76416015625,-0.6483001708984375
17.22,-0.05222911760210991,0.018671421334147453,0.005760683678090572,-0.0204315185546875,-0.7645416259765625,-0.639984130859375
17.24,-0.060031644999980927,0.007096258923411369,0.009462477639317513,-0.0259552001953125,-0.7640838623046875,-0.640106201171875
17.26,-0.07222119718790054,0.016653545200824738,0.02479482814669609,-0.02557373046875,-0.76068115234375,-0.6396636962890625
17.28,-0.06809010356664658,0.02370000258088112,0.02780100516974926,-0.019439697265625,-0.761199951171875,-0.646697998046875
17.3,-0.05282086879014969,0.033136382699012756,-0.0056951697915792465,-0.02398681640625,-0.7666778564453125,-0.65509033203125
17.32,-0.03584135323762894,0.03110172599554062,-0.03117895871400833,-0.0382537841796875,-0.77581787109375,-0.6612396240234375
17.34,-0.029883863404393196,0.0012389025650918484,-0.031437549740076065,-0.034759521484375,-0.7713470458984375,-0.659637451171875
17.36,-0.04120762273669243,0.008313856087625027,-0.025970879942178726,-0.02587890625,-0.76556396484375,-0.6468505859375
17.38,-0.05354631692171097,0.039260055869817734,-0.01824371889233589,-0.0241241455078125,-0.755279541015625,-0.6483917236328125
17.4,-0.04857072979211807,0.03268870338797569,-0.01522688940167427,-0.016754150390625,-0.7544097900390625,-0.64996337890625
17.42,-0.05144108831882477,0.008069911040365696,-0.022713035345077515,-0.0151824951171875,-0.754150390625,-0.6489105224609375
17.44,-0.06479950249195099,-0.006396912969648838,-0.027813255786895752,-0.0167083740234375,-0.755706787109375,-0.643310546875
17.46,-0.0921030268073082,0.0034519892651587725,-0.01534699834883213,-0.0153656005859375,-0.7510833740234375,-0.638671875
17.48,-0.08978687971830368,0.02034468576312065,-0.005517537239938974,-0.013092041015625,-0.745025634765625,-0.6443023681640625
17.5,-0.05850512161850929,0.005919141694903374,-0.006126335822045803,-0.014495849609375,-0.74749755859375,-0.6603546142578125
17.52,-0.03455211967229843,0.003014165675267577,-0.001892175991088152,-0.0121612548828125,-0.7531585693359375,-0.6697540283203125
17.54,-0.027456924319267273,-0.005071723833680153,-0.022118352353572845,-0.010589599609375,-0.756134033203125,-0.6739959716796875
17.56,-0.03231426328420639,0.0018160095205530524,-0.036980919539928436,-0.021820068359375,-0.756561279296875,-0.667999267578125
17.58,-0.039207324385643005,0.01684875413775444,-0.018794193863868713,-0.0172119140625,-0.7538909912109375,-0.6674346923828125
17.6,-0.02303873933851719,0.006549245677888393,0.00452950457111001,-0.010528564453125,-0.747528076171875,-0.6698150634765625
17.62,0.004496481269598007,-0.00006205165118444711,0.009220396168529987,-0.00726318359375,-0.7488250732421875,-0.6754150390625
17.64,0.025243038311600685,0.004716191906481981,-0.02658713608980179,-0.01092529296875,-0.7514190673828125,-0.6805419921875
17.66,0.03266340494155884,0.006922620814293623,-0.049199771136045456,-0.0278778076171875,-0.7591705322265625,-0.6781463623046875
17.68,0.0243103988468647,0.021277058869600296,-0.031194137409329414,-0.024169921875,-0.75616455078125,-0.669647216796875
17.7,0.015796806663274765,0.031559258699417114,0.007397728972136974,-0.0031890869140625,-0.74468994140625,-0.6629486083984375
17.72,0.01991698332130909,0.010663563385605812,-0.0013518205378204584,-0.0005340576171875,-0.7384796142578125,-0.66094970703125
17.74,-0.0013334447285160422,-0.00929336715489626,0.0049766493029892445,-0.009613037109375,-0.742431640625,-0.65179443359375
17.76,-0.023075491189956665,0.003299656556919217,0.01515897922217846,-0.008392333984375,-0.7431182861328125,-0.6458282470703125
17.78,-0.020913004875183105,0.024084564298391342,0.020769193768501282,-0.007965087890625,-0.7451171875,-0.6536865234375
17.8,0.0012242551892995834,0.026631876826286316,0.023207850754261017,-0.006103515625,-0.7471771240234375,-0.668304443359375
17.82,0.007772968150675297,0.027717115357518196,0.029104355722665787,-0.0090484619140625,-0.7451171875,-0.6705169677734375
17.84,-0.0009488842915743589,0.019402991980314255,0.033435188233852386,-0.0104827880859375,-0.7459716796875,-0.6668853759765625
17.86,-0.015683887526392937,0.030300114303827286,0.02623826265335083,-0.0106964111328125,-0.749542236328125,-0.6635284423828125
17.88,-0.005625927820801735,0.03837908059358597,0.011304852552711964,-0.0175628662109375,-0.7567291259765625,-0.6636810302734375
17.9,0.005744970869272947,0.03696121275424957,-0.0002767024270724505,-0.0187225341796875,-0.7581939697265625,-0.667877197265625
17.92,0.03256513178348541,0.017664480954408646,-0.0020836573094129562,-0.0176849365234375,-0.753814697265625,-0.6640167236328125
17.94,0.04615551233291626,-0.02167040854692459,-0.014742461033165455,-0.020904541015625,-0.7527618408203125,-0.65576171875
17.96,0.028779184445738792,-0.014281733892858028,-0.01871776208281517,-0.0229034423828125,-0.75341796875,-0.65106201171875
17.98,0.003611246356740594,0.010177802294492722,-0.009639844298362732,-0.0128173828125,-0.7504730224609375,-0.6482391357421875
18,-0.015453258529305458,-0.004735100548714399,-0.00987340323626995,-0.0128173828125,-0.7504730224609375,-0.6482391357421875
18.02,-0.020350012928247452,0.0006940197781659663,-0.013218866661190987,-0.0115966796875,-0.750030517578125,-0.6470184326171875
18.04,-0.015281750820577145,0.004977447912096977,-0.008431301452219486,-0.0119476318359375,-0.7431793212890625,-0.653656005859375
18.06,-0.002095108851790428,-0.0008609999786131084,0.0009369000908918679,-0.007293701171875,-0.7445220947265625,-0.6610107421875
18.08,0.01619148626923561,-0.0037894118577241898,0.012645221315324306,-0.0013427734375,-0.7468109130859375,-0.667144775390625
18.1,0.027183150872588158,0.0040884846821427345,0.019420037046074867,-0.001434326171875,-0.7465057373046875,-0.6693572998046875
18.12,0.025076590478420258,0.014941931702196598,0.025362614542245865,-0.0065155029296875,-0.7440032958984375,-0.6685638427734375
18.14,0.026941603049635887,-0.0036216326989233494,0.018763035535812378,-0.0084228515625,-0.7466583251953125,-0.6624908447265625
18.16,0.03165246918797493,-0.013965084217488766,0.009888849221169949,-0.010833740234375,-0.75213623046875,-0.6565399169921875
18.18,0.026251576840877533,-0.010980745777487755,0.009109608829021454,-0.0159912109375,-0.7543487548828125,-0.6565704345703125
18.2,0.014219416305422783,0.012348544783890247,0.011709386482834816,-0.017669677734375,-0.753143310546875,-0.658233642578125
18.22,-0.0029611687641590834,0.01943867839872837,0.014184794388711452,-0.01654052734375,-0.753143310546875,-0.6557464599609375
18.24,-0.0010713896481320262,0.0037792918737977743,0.002692722249776125,-0.0197601318359375,-0.7579498291015625,-0.65374755859375
18.26,0.025008680298924446,-0.02412823960185051,-0.0005523395957425237,-0.018768310546875,-0.7569427490234375,-0.660247802734375
18.28,0.05271008238196373,-0.014505173079669476,-0.009224390611052513,-0.01568603515625,-0.7563629150390625,-0.664794921875
18.3,0.06357365101575851,-0.0029675604309886694,0.007378820329904556,-0.0131378173828125,-0.753753662109375,-0.67205810546875
18.32,0.08130018413066864,-0.03243304044008255,0.018521752208471298,-0.008453369140625,-0.749725341796875,-0.66802978515625
18.34,0.08726486563682556,-0.05074600130319595,0.01667351834475994,-0.0077667236328125,-0.7531585693359375,-0.656402587890625
18.36,0.08413325250148773,-0.0392448753118515,0.02900075912475586,-0.0156707763671875,-0.75213623046875,-0.6547088623046875
18.38,0.08778391778469086,-0.021131116896867752,0.024594292044639587,-0.014923095703125,-0.7522125244140625,-0.662689208984375
18.4,0.09278825670480728,-0.03669782727956772,0.023619575425982475,-0.0158233642578125,-0.7598876953125,-0.667388916015625
18.42,0.11128897219896317,-0.04543725773692131,0.016586167737841606,-0.0194854736328125,-0.767730712890625,-0.664398193359375
18.44,0.10929293185472488,0.008390288800001144,-0.011903797276318073,-0.031280517578125,-0.76629638671875,-0.6715850830078125
18.46,0.07830572128295898,0.0674341693520546,-0.03200986608862877,-0.041168212890625,-0.769256591796875,-0.673004150390625
18.48,0.07634856551885605,0.10560978204011917,-0.06234566494822502,-0.031524658203125,-0.7829437255859375,-0.6614227294921875
18.5,0.09524422883987427,0.1073530912399292,-0.07876085489988327,-0.0060577392578125,-0.74969482421875,-0.61785888671875
18.52,0.08943720161914825,0.05146505683660507,-0.02822178415954113,-0.0060577392578125,-0.74969482421875,-0.61785888671875
18.54,0.051364652812480927,-0.005658951122313738,0.02953472174704075,0.0111541748046875,-0.71856689453125,-0.5784149169921875
18.56,-0.052621930837631226,-0.0817694291472435,0.060024455189704895,0.0051422119140625,-0.716339111328125,-0.560272216796875
18.58,-0.16110233962535858,-0.10101689398288727,0.07069361209869385,-0.0041656494140625,-0.74481201171875,-0.550384521484375
18.6,-0.2062748670578003,-0.05325443297624588,0.02545875497162342,-0.017547607421875,-0.7796173095703125,-0.5814361572265625
18.62,-0.1569472700357437,-0.015855928882956505,-0.03904939815402031,-0.049774169921875,-0.789825439453125,-0.6385040283203125
18.64,-0.06517288088798523,-0.010174606926739216,-0.053410228341817856,-0.0506744384765625,-0.7829742431640625,-0.6817779541015625
18.66,0.015732889994978905,-0.028960011899471283,-0.03385863080620766,-0.02911376953125,-0.76904296875,-0.7038421630859375
18.68,0.03789332136511803,-0.026445189490914345,-0.006615558639168739,-0.008209228515625,-0.7655029296875,-0.7011260986328125
18.7,0.03531910851597786,-0.007701063062995672,-0.010398845188319683,-0.0028533935546875,-0.7652435302734375,-0.6897430419921875
18.72,0.03353239223361015,0.03178482875227928,-0.03423147276043892,-0.0159912109375,-0.76409912109375,-0.681640625
18.74,0.05306987464427948,0.041604701429605484,-0.03789092227816582,-0.0210723876953125,-0.7663116455078125,-0.677337646484375
18.76,0.09691482782363892,0.022974291816353798,-0.024522919207811356,-0.014190673828125,-0.7618408203125,-0.6703643798828125
18.78,0.1080942451953888,0.0067849354818463326,-0.004978246986865997,-0.007781982421875,-0.7512359619140625,-0.65789794921875
18.8,0.0640849769115448,-0.001487109111621976,0.014220214448869228,-0.0029296875,-0.743621826171875,-0.6388092041015625
18.82,0.005392102058976889,0.013880395330488682,0.013745106756687164,-0.0073089599609375,-0.748291015625,-0.6202545166015625
18.84,-0.025466477498412132,0.01557975821197033,0.012836170382797718,-0.0107421875,-0.7594146728515625,-0.6174163818359375
18.86,-0.013865482062101364,0.0012397015234455466,0.006329002324491739,-0.01434326171875,-0.761962890625,-0.62420654296875
18.88,0.014651380479335785,-0.01119486428797245,-0.001743038883432746,-0.0219879150390625,-0.7633209228515625,-0.635833740234375
18.9,0.012220446951687336,0.003756654914468527,0.010272610932588577,-0.0204315185546875,-0.7622528076171875,-0.643035888671875
18.92,-0.002511094557121396,0.016337960958480835,0.011208179406821728,-0.01226806640625,-0.7662200927734375,-0.64385986328125
18.94,-0.013069196604192257,0.01441329438239336,-0.00908590666949749,-0.0225982666015625,-0.766510009765625,-0.637298583984375
18.96,-0.024416659027338028,0.012555472552776337,0.003878627670928836,-0.0229339599609375,-0.7636566162109375,-0.6355743408203125
18.98,-0.024578580632805824,-0.010424677282571793,0.025533322244882584,-0.0125885009765625,-0.7607421875,-0.6356964111328125
19,-0.01028459519147873,-0.02311490662395954,-0.0010713896481320262,-0.0081024169921875,-0.7628173828125,-0.6421661376953125
19.02,0.0024490428622812033,-0.016207732260227203,-0.025611087679862976,-0.0243682861328125,-0.77056884765625,-0.650543212890625
19.04,-0.0056951697915792465,0.0000780306218075566,-0.0037705034483224154,-0.0283660888671875,-0.7693634033203125,-0.655548095703125
19.06,-0.006695453077554703,0.010412161238491535,0.023755131289362907,-0.0148468017578125,-0.7608642578125,-0.65472412109375
19.08,0.004001399502158165,0.02514689788222313,0.014792794361710548,-0.008575439453125,-0.7573394775390625,-0.6553192138671875
19.1,0.008594552986323833,0.04192454740405083,0.0010229201288893819,-0.018798828125,-0.7664642333984375,-0.658050537109375
19.12,0.0006285060080699623,0.05487123876810074,0.003954527899622917,-0.016448974609375,-0.7663726806640625,-0.6501007080078125
19.14,-0.006097839679569006,0.0550997368991375,0.023384418338537216,-0.010406494140625,-0.7562713623046875,-0.6399993896484375
19.16,-0.020050406455993652,0.0319688506424427,0.04481620714068413,-0.010162353515625,-0.7461090087890625,-0.6328887939453125
19.18,-0.03368153050541878,0.017291905358433723,0.04435840994119644,-0.0032196044921875,-0.7513580322265625,-0.6267852783203125
19.2,-0.0432172454893589,-0.006525010801851749,0.022766033187508583,-0.013916015625,-0.7621002197265625,-0.630126953125
19.22,-0.05083654820919037,-0.0010245180455967784,0.02069143019616604,-0.02001953125,-0.764678955078125,-0.63360595703125
