timestamp,gyro_x,gyro_y,gyro_z,acc_x,acc_y,acc_z
0,-0.08590665459632874,-0.1039503663778305,0.09073735773563385,0,0,0
0.02,-0.2283993512392044,-0.16990354657173157,0.025225196033716202,0.0827178955078125,-0.598297119140625,-0.74285888671875
0.04,-0.292894184589386,-0.10570325702428818,-0.08769310265779495,0.047882080078125,-0.605438232421875,-0.71337890625
0.06,-0.29060518741607666,0.11243999004364014,-0.03206206113100052,0.0410003662109375,-0.5894775390625,-0.7951507568359375
0.08,-0.17224952578544617,0.19598469138145447,0.07032955437898636,0.082305908203125,-0.5537261962890625,-0.8303985595703125
0.1,-0.08485417068004608,0.0846610888838768,0.16117744147777557,0.1232452392578125,-0.54254150390625,-0.832916259765625
0.12,-0.10024191439151764,-0.027884095907211304,0.22666244208812714,0.1538238525390625,-0.5527191162109375,-0.7790985107421875
0.14,-0.19030123949050903,-0.1230873093008995,0.2211851179599762,0.1248779296875,-0.5807342529296875,-0.7532958984375
0.16,-0.22979538142681122,-0.05915599688887596,0.2424326092004776,0.0858154296875,-0.5899505615234375,-0.766326904296875
0.18,-0.24759674072265625,-0.09928690642118454,0.34879153966903687,0.094146728515625,-0.5785980224609375,-0.7872772216796875
0.2,-0.2977304756641388,-0.1469321846961975,0.448003888130188,0.120147705078125,-0.597564697265625,-0.7925872802734375
0.22,-0.28592416644096375,-0.07631953805685043,0.4115787744522095,0.0774078369140625,-0.63031005859375,-0.7939910888671875
0.24,-0.18597786128520966,0.011244132183492184,0.2768036425113678,-0.0105133056640625,-0.666229248046875,-0.8701629638671875
0.26,-0.05059553310275078,0.07231894135475159,0.21909746527671814,-0.0401153564453125,-0.676116943359375,-0.9156646728515625
0.28,0.08768777549266815,0.02828143909573555,0.2424195557832718,0.0044097900390625,-0.6380615234375,-0.9057464599609375
0.3,0.1841096580028534,-0.0517398938536644,0.3050379455089569,0.069000244140625,-0.6098785400390625,-0.8680419921875
0.32,0.22421924769878387,-0.04899230971932411,0.35959386825561523,0.079681396484375,-0.579132080078125,-0.8474884033203125
0.34,0.21551550924777985,0.04186782240867615,0.382255494594574,0.06219482421875,-0.5789794921875,-0.8431243896484375
0.36,0.17586104571819305,0.07343479990959167,0.34035438299179077,0.040924072265625,-0.586395263671875,-0.8397369384765625
0.38,0.140581876039505,0.013406086713075638,0.2633597254753113,0.018402099609375,-0.5965118408203125,-0.80657958984375
0.4,0.22656390070915222,-0.02839648723602295,0.207863450050354,0.0098114013671875,-0.60955810546875,-0.7954864501953125
0.42,0.3089767396450043,0.007924501784145832,0.173776313662529,0.00341796875,-0.6092681884765625,-0.849212646484375
0.44,0.34802401065826416,0.016746755689382553,0.20202207565307617,-0.0071868896484375,-0.6059722900390625,-0.8418121337890625
0.46,0.3444513976573944,-0.06553346663713455,0.2132941633462906,0.0002899169921875,-0.6035308837890625,-0.81402587890625
0.48,0.19306719303131104,-0.138077974319458,0.12259222567081451,-0.021087646484375,-0.6293182373046875,-0.7838897705078125
0.5,0.13264299929141998,-0.16277959942817688,-0.015245798043906689,-0.0703125,-0.65557861328125,-0.7488250732421875
0.52,0.2214178740978241,-0.1557919979095459,-0.10429871082305908,-0.0822601318359375,-0.64068603515625,-0.7909698486328125
0.54,0.313959002494812,-0.19364643096923828,-0.15483884513378143,-0.073883056640625,-0.6226348876953125,-0.821624755859375
0.56,0.30175507068634033,-0.2352391481399536,-0.18164542317390442,-0.0461578369140625,-0.6136474609375,-0.7996063232421875
0.58,0.22511087357997894,-0.2291562259197235,-0.22195211052894592,-0.0301513671875,-0.621917724609375,-0.769439697265625
0.6,0.07138337194919586,-0.2297048270702362,-0.2321235090494156,-0.01336669921875,-0.6187591552734375,-0.739898681640625
0.62,-0.010114685632288456,-0.2480284422636032,-0.19332897663116455,0.0074005126953125,-0.61981201171875,-0.7052154541015625
0.64,0.018674084916710854,-0.2595788538455963,-0.11421738564968109,0.04248046875,-0.621490478515625,-0.7219085693359375
0.66,0.0950937569141388,-0.271782249212265,-0.08311459422111511,0.055419921875,-0.636810302734375,-0.7601470947265625
0.68,0.06264261156320572,-0.30130764842033386,-0.07018893957138062,0.0496063232421875,-0.65386962890625,-0.7653045654296875
0.7,0.0023574302904307842,-0.26951244473457336,-0.005501025356352329,0.0652618408203125,-0.665802001953125,-0.7403106689453125
0.72,-0.07725270837545395,-0.25242185592651367,0.058457184582948685,0.08056640625,-0.6662445068359375,-0.748443603515625
0.74,-0.14587491750717163,-0.23754970729351044,0.1140781044960022,0.0716705322265625,-0.65509033203125,-0.74334716796875
0.76,-0.09078583121299744,-0.17757345736026764,0.17748583853244781,0.066864013671875,-0.6434173583984375,-0.7703857421875
0.78,0.03977138176560402,-0.061295848339796066,0.2287418395280838,0.0512237548828125,-0.6253814697265625,-0.8391265869140625
0.8,0.10010503232479095,-0.10346566885709763,0.2575092911720276,0.0392303466796875,-0.608551025390625,-0.8487701416015625
0.82,0.10793551802635193,-0.13271357119083405,0.2560102045536041,0.02166748046875,-0.6109161376953125,-0.8145904541015625
0.84,0.1611047387123108,-0.10328830778598785,0.326476126909256,0.01190185546875,-0.5963897705078125,-0.8017730712890625
0.86,0.1998654454946518,-0.045036185532808304,0.4445766508579254,0.0154571533203125,-0.580352783203125,-0.820526123046875
0.88,0.16165120899677277,-0.049860235303640366,0.5666431784629822,0.0284576416015625,-0.5767974853515625,-0.7890625
0.9,0.13543079793453217,-0.020055467262864113,0.6421038508415222,0.0113983154296875,-0.5682220458984375,-0.7589111328125
0.92,0.20852898061275482,0.07159163057804108,0.742760956287384,-0.013641357421875,-0.572967529296875,-0.7841339111328125
0.94,0.1728668510913849,0.07684364914894104,0.8176652789115906,-0.0275115966796875,-0.5679473876953125,-0.80364990234375
0.96,0.05561612546443939,0.047091078013181686,0.8036128282546997,-0.075408935546875,-0.5929718017578125,-0.749359130859375
0.98,0.06415847688913345,0.08429543673992157,0.7136616706848145,-0.14080810546875,-0.6492767333984375,-0.7388763427734375
1,0.0645584836602211,0.18341270089149475,0.58571857213974,-0.172607421875,-0.6717681884765625,-0.78436279296875
1.02,-0.01190859079360962,0.3855127990245819,0.44738948345184326,-0.1912841796875,-0.688507080078125,-0.7905731201171875
1.04,-0.027957331389188766,0.5748007297515869,0.32372745871543884,-0.2117462158203125,-0.7080078125,-0.790771484375
1.06,0.02792004868388176,0.512713611125946,0.20408521592617035,-0.20196533203125,-0.7040557861328125,-0.7845458984375
1.08,0.14637266099452972,0.3962818384170532,0.11095528304576874,-0.17413330078125,-0.696929931640625,-0.782928466796875
1.1,0.22614498436450958,0.3396614193916321,0.07414906471967697,-0.1428375244140625,-0.67584228515625,-0.7861175537109375
1.12,0.24681085348129272,0.3450857400894165,0.058695804327726364,-0.1210784912109375,-0.6563568115234375,-0.7657623291015625
1.14,0.21036681532859802,0.3455917537212372,0.05127197504043579,-0.1152496337890625,-0.6482391357421875,-0.74456787109375
1.16,0.1648494005203247,0.3261653184890747,0.03555320203304291,-0.1162567138671875,-0.6515045166015625,-0.7208404541015625
1.18,0.1438509076833725,0.3428649306297302,0.026076074689626694,-0.121551513671875,-0.6481475830078125,-0.7237091064453125
1.2,0.09736224263906479,0.34119728207588196,0.023858994245529175,-0.1256103515625,-0.6422271728515625,-0.7294921875
1.22,0.02088237926363945,0.3252353370189667,0.009808422066271305,-0.1270904541015625,-0.646148681640625,-0.7278289794921875
1.24,-0.04589931294322014,0.2945144474506378,-0.0385146364569664,-0.1368865966796875,-0.6550140380859375,-0.721527099609375
1.26,-0.0881439745426178,0.23310941457748413,-0.11468982696533203,-0.1598052978515625,-0.6553497314453125,-0.729522705078125
1.28,-0.08078459650278091,0.08152016252279282,-0.1772213876247406,-0.1568756103515625,-0.651763916015625,-0.738189697265625
1.3,-0.027525100857019424,-0.07141559571027756,-0.2286882996559143,-0.129974365234375,-0.64288330078125,-0.755035400390625
1.32,0.015441274270415306,-0.10086775571107864,-0.28746268153190613,-0.1264495849609375,-0.640289306640625,-0.7707672119140625
1.34,-0.00038509309524670243,-0.09881925582885742,-0.3384150564670563,-0.1244964599609375,-0.6386566162109375,-0.761383056640625
1.36,-0.06183726713061333,-0.08410821855068207,-0.3759259581565857,-0.1024932861328125,-0.6380767822265625,-0.737548828125
1.38,-0.12919926643371582,-0.05814612656831741,-0.40924155712127686,-0.0897369384765625,-0.6388092041015625,-0.724700927734375
1.4,-0.22885075211524963,-0.0913727879524231,-0.39839982986450195,-0.0600128173828125,-0.6352386474609375,-0.7127532958984375
1.42,-0.28958094120025635,-0.15008270740509033,-0.349566251039505,-0.014007568359375,-0.6290435791015625,-0.697601318359375
1.44,-0.2993941605091095,-0.2124885618686676,-0.3141949474811554,0.0103302001953125,-0.624359130859375,-0.7190399169921875
1.46,-0.23219142854213715,-0.20537738502025604,-0.28234460949897766,0.009796142578125,-0.6249847412109375,-0.7467193603515625
1.48,-0.13250425457954407,-0.12774518132209778,-0.2833523452281952,-0.011474609375,-0.628875732421875,-0.8049163818359375
1.5,-0.0865388885140419,-0.08127328753471375,-0.25603151321411133,-0.0128631591796875,-0.629180908203125,-0.8128204345703125
1.52,-0.08263495564460754,-0.08950404822826385,-0.21992836892604828,0.002960205078125,-0.6352386474609375,-0.7864837646484375
1.54,-0.09829168021678925,-0.09845174103975296,-0.18610303103923798,0.019683837890625,-0.64654541015625,-0.7604217529296875
1.56,-0.03853221237659454,-0.07181932777166367,-0.16079872846603394,0.021514892578125,-0.6551513671875,-0.765777587890625
1.58,-0.006205165293067694,-0.03453027829527855,-0.1691346913576126,0.0089111328125,-0.657928466796875,-0.7971038818359375
1.6,0.0059809270314872265,-0.011071027256548405,-0.13373889029026031,0.0019989013671875,-0.6653289794921875,-0.7908935546875
1.62,0.001276453142054379,-0.016263658180832863,-0.09611374884843826,0.017822265625,-0.6621856689453125,-0.7826080322265625
1.64,0.009952499531209469,0.008236357942223549,-0.06630232185125351,0.026611328125,-0.6528778076171875,-0.7746734619140625
1.66,0.015918511897325516,0.0323808416724205,-0.02960343286395073,0.0251617431640625,-0.63739013671875,-0.780487060546875
1.68,-0.003966778516769409,0.06090676039457321,0.004484230652451515,0.0278778076171875,-0.63006591796875,-0.7752838134765625
1.7,-0.02630084566771984,0.09584450721740723,0.036433640867471695,0.0254364013671875,-0.62969970703125,-0.7688140869140625
1.72,-0.013624199666082859,0.08483446389436722,0.047083090990781784,0.0175323486328125,-0.629852294921875,-0.7713775634765625
1.74,-0.019305787980556488,0.0802500993013382,0.0652780756354332,0.013427734375,-0.6307220458984375,-0.7729949951171875
1.76,-0.04583806172013283,0.09992793202400208,0.08938740193843842,0.0223388671875,-0.627838134765625,-0.7593841552734375
1.78,-0.06944991648197174,0.13743162155151367,0.10765748471021652,0.019134521484375,-0.627105712890625,-0.7623291015625
1.8,-0.09394833445549011,0.1400524377822876,0.11060108244419098,0.0122222900390625,-0.622344970703125,-0.7678375244140625
1.82,-0.09554143249988556,0.15066461265087128,0.09603145718574524,0.0103912353515625,-0.620635986328125,-0.7668304443359375
1.84,-0.10052287578582764,0.17941929399967194,0.09686609357595444,0.009368896484375,-0.6089019775390625,-0.7762451171875
1.86,-0.08542275428771973,0.24145282804965973,0.11646588891744614,0.0192718505859375,-0.602752685546875,-0.7819366455078125
1.88,-0.06760008633136749,0.2740778923034668,0.13641004264354706,0.0291900634765625,-0.5992431640625,-0.7890625
1.9,-0.0685468390583992,0.28400883078575134,0.18604150414466858,0.03021240234375,-0.6069488525390625,-0.7903900146484375
1.92,-0.09535980969667435,0.2868677079677582,0.1610269695520401,0.0381011962890625,-0.6181488037109375,-0.7791595458984375
1.94,-0.09797689318656921,0.31162819266319275,0.14731834828853607,0.020782470703125,-0.6363983154296875,-0.7938690185546875
1.96,-0.10493014752864838,0.3024759888648987,0.13781219720840454,0.0244903564453125,-0.637664794921875,-0.80902099609375
1.98,-0.11673567444086075,0.28580591082572937,0.13490508496761322,0.03045654296875,-0.63800048828125,-0.81219482421875
2,-0.12037701159715652,0.2617834210395813,0.13984711468219757,0.03765869140625,-0.6288604736328125,-0.814483642578125
2.02,-0.1106380969285965,0.22469276189804077,0.12288091331720352,0.0253143310546875,-0.62713623046875,-0.8148345947265625
2.04,-0.09854681044816971,0.18316715955734253,0.11758655309677124,0.0098876953125,-0.621124267578125,-0.8144989013671875
2.06,-0.06777824461460114,0.12717179954051971,0.1350928395986557,0.015960693359375,-0.606964111328125,-0.810882568359375
2.08,0.04066673666238785,0.08814503997564316,0.13564997911453247,0.014801025390625,-0.590362548828125,-0.8164825439453125
2.1,0.1498401015996933,0.03446929529309273,0.1166328713297844,-0.0071563720703125,-0.584228515625,-0.8337554931640625
2.12,0.17712818086147308,-0.06952634453773499,0.10413465648889542,-0.0174102783203125,-0.587615966796875,-0.8074188232421875
2.14,0.16104161739349365,-0.1582554131746292,0.11022557318210602,-0.016021728515625,-0.603790283203125,-0.7671051025390625
2.16,0.1449207067489624,-0.22589704394340515,0.0779067799448967,-0.0340576171875,-0.6118621826171875,-0.7468109130859375
2.18,0.10434744507074356,-0.24932141602039337,0.01272671390324831,-0.0736846923828125,-0.629608154296875,-0.7564544677734375
2.2,0.0718531534075737,-0.25227487087249756,-0.06713083386421204,-0.1052398681640625,-0.6338348388671875,-0.75274658203125
2.22,0.025723472237586975,-0.23172403872013092,-0.15182414650917053,-0.1169891357421875,-0.6265411376953125,-0.7506256103515625
2.24,-0.017057813704013824,-0.16009247303009033,-0.1959274262189865,-0.10791015625,-0.6188812255859375,-0.743743896484375
2.26,-0.07095992565155029,-0.08616657555103302,-0.198375403881073,-0.0673675537109375,-0.59075927734375,-0.7440185546875
2.28,-0.10071755945682526,-0.035652801394462585,-0.17323170602321625,-0.0301055908203125,-0.5841827392578125,-0.748046875
2.3,-0.09350278973579407,-0.063622385263443,-0.14509886503219604,-0.0003204345703125,-0.582275390625,-0.7530364990234375
2.32,-0.09997905790805817,-0.057619888335466385,-0.10903700441122055,0.025146484375,-0.596221923828125,-0.768218994140625
2.34,-0.1581912338733673,-0.01128194946795702,-0.08809950202703476,0.0343017578125,-0.6161041259765625,-0.78076171875
2.36,-0.2444417029619217,0.013732589781284332,-0.08893972635269165,0.0318450927734375,-0.6338958740234375,-0.77972412109375
2.38,-0.2891146242618561,0.028560537844896317,-0.2048407644033432,-0.003753662109375,-0.658172607421875,-0.79608154296875
2.4,-0.3419967591762543,0.014707040973007679,-0.3764668405056,-0.0689239501953125,-0.6887054443359375,-0.81689453125
2.42,-0.3193915784358978,-0.01944613642990589,-0.4472392797470093,-0.04351806640625,-0.6775054931640625,-0.8213653564453125
2.44,-0.15446732938289642,0.05341155827045441,-0.45822855830192566,-0.0032501220703125,-0.64739990234375,-0.883941650390625
2.46,0.00030839405371807516,0.05879540741443634,-0.5117242932319641,-0.011810302734375,-0.6097564697265625,-0.9039154052734375
2.48,0.10570086538791656,0.08285307139158249,-0.5574496984481812,-0.031829833984375,-0.6031951904296875,-0.888214111328125
2.5,0.13531947135925293,0.08269381523132324,-0.5229254961013794,-0.007598876953125,-0.5808868408203125,-0.843841552734375
2.52,0.13199292123317719,0.07253199070692062,-0.3830062448978424,0.065521240234375,-0.5445556640625,-0.7942962646484375
2.54,0.14617905020713806,0.08359503000974655,-0.2391183078289032,0.1233367919921875,-0.52642822265625,-0.7725982666015625
2.56,0.15789109468460083,0.055332764983177185,-0.16990327835083008,0.125579833984375,-0.5253143310546875,-0.767486572265625
2.58,0.1623327136039734,-0.0072778863832354546,-0.11837990581989288,0.1098175048828125,-0.5449981689453125,-0.7624969482421875
2.6,0.12558482587337494,-0.06564692407846451,-0.057500578463077545,0.1233978271484375,-0.5619659423828125,-0.7683868408203125
2.62,0.008761799894273281,-0.04568919166922569,0.00418329332023859,0.1222686767578125,-0.5860443115234375,-0.771148681640625
2.64,-0.06583387404680252,-0.07710730284452438,0.09086306393146515,0.11309814453125,-0.6018829345703125,-0.7631683349609375
2.66,-0.05501345172524452,-0.11344906687736511,0.12373685836791992,0.1048126220703125,-0.6142730712890625,-0.7894439697265625
2.68,0.031506527215242386,-0.06196323782205582,0.09415552765130997,0.06646728515625,-0.6308441162109375,-0.8343658447265625
2.7,0.12972711026668549,0.02280438132584095,0.028627650812268257,0.0219268798828125,-0.6377410888671875,-0.8768157958984375
2.72,0.17019516229629517,0.01840590499341488,-0.01558002457022667,0.0138397216796875,-0.6360626220703125,-0.86639404296875
2.74,0.20963658392429352,-0.005141764879226685,-0.0038722362369298935,0.0391693115234375,-0.6226348876953125,-0.830352783203125
2.76,0.23367933928966522,-0.022285331040620804,0.011095527559518814,0.0551605224609375,-0.598541259765625,-0.8221282958984375
2.78,0.2237878143787384,-0.013471866957843304,0.041670747101306915,0.0640411376953125,-0.5830841064453125,-0.801422119140625
2.8,0.1888279765844345,-0.00478277076035738,0.06980251520872116,0.06671142578125,-0.5744781494140625,-0.7800140380859375
2.82,0.179955393075943,-0.026643062010407448,0.05934428423643112,0.0555419921875,-0.5794677734375,-0.761199951171875
2.84,0.17875723540782928,-0.04038337618112564,0.06343702971935272,0.0450897216796875,-0.589935302734375,-0.76861572265625
2.86,0.13891740143299103,-0.059121642261743546,0.08887128531932831,0.0478515625,-0.5897979736328125,-0.7594451904296875
2.88,0.10480417311191559,-0.05410398170351982,0.08225598931312561,0.0467987060546875,-0.60791015625,-0.75421142578125
2.9,0.12325082719326019,-0.04749135300517082,0.05762254819273949,0.0303802490234375,-0.627838134765625,-0.7681121826171875
2.92,0.1584458351135254,-0.009710151702165604,0.04619705677032471,0.0194091796875,-0.6422271728515625,-0.7895050048828125
2.94,0.1718926727771759,-0.012767460197210312,0.04472193121910095,0.0245819091796875,-0.648773193359375,-0.787261962890625
2.96,0.21028266847133636,-0.054175619035959244,0.029863888397812843,0.02886962890625,-0.6612091064453125,-0.7699432373046875
2.98,0.3138764500617981,-0.06297443807125092,0.003543602069839835,0.0186309814453125,-0.6679534912109375,-0.78070068359375
3,0.40854063630104065,-0.049684200435876846,-0.01966984197497368,0.0198516845703125,-0.6663818359375,-0.796875
3.02,0.35314634442329407,-0.0210120752453804,-0.053722083568573,0.0204620361328125,-0.6582183837890625,-0.78912353515625
3.04,0.2757340967655182,0.05926651880145073,-0.04724074900150299,0.0213470458984375,-0.671844482421875,-0.7438812255859375
3.06,0.2607085406780243,0.053098905831575394,-0.047439154237508774,0.0370941162109375,-0.6607666015625,-0.721710205078125
3.08,0.28036028146743774,-0.006013417616486549,-0.021449098363518715,0.0556640625,-0.659088134765625,-0.7095794677734375
3.1,0.22616708278656006,-0.0462346076965332,0.03398166969418526,0.0748138427734375,-0.662506103515625,-0.6946563720703125
3.12,0.07627613097429276,-0.0037702370900660753,0.055691756308078766,0.0737457275390625,-0.6834564208984375,-0.6770172119140625
3.14,-0.09296029806137085,0.06205245107412338,0.040402814745903015,0.0523834228515625,-0.70416259765625,-0.6690826416015625
3.16,-0.13005520403385162,0.04704181104898453,0.02695252187550068,0.0411529541015625,-0.687255859375,-0.678802490234375
3.18,-0.05753146857023239,-0.031674038618803024,0.0614875964820385,0.048736572265625,-0.661529541015625,-0.7290191650390625
3.2,-0.052805956453084946,-0.025542378425598145,0.09816890954971313,0.0478363037109375,-0.642974853515625,-0.7589569091796875
3.22,-0.1109161302447319,0.07718639820814133,0.07551952451467514,0.02239990234375,-0.65576171875,-0.757904052734375
3.24,-0.10947669297456741,0.06701525300741196,0.043963462114334106,-0.00311279296875,-0.6617584228515625,-0.7524871826171875
3.26,-0.04367051646113396,0.0016620787791907787,0.043353866785764694,0.005645751953125,-0.6643829345703125,-0.7671356201171875
3.28,0.002923884429037571,-0.021445903927087784,0.05968703329563141,0.021575927734375,-0.65771484375,-0.779296875
3.3,-0.00896739587187767,-0.021558022126555443,0.07363613694906235,0.0255126953125,-0.652252197265625,-0.772216796875
3.32,-0.040638506412506104,0.009250223636627197,0.05802202224731445,0.0226593017578125,-0.6547698974609375,-0.7582244873046875
3.34,-0.02136014960706234,0.07108935713768005,0.009672867134213448,-0.002044677734375,-0.6688690185546875,-0.7604217529296875
3.36,0.03558116406202316,0.09117012470960617,-0.02111753635108471,-0.0095672607421875,-0.6747894287109375,-0.7740936279296875
3.38,0.03207138180732727,0.046488139778375626,-0.030468426644802094,0.01019287109375,-0.67474365234375,-0.7553863525390625
3.4,-0.029317408800125122,0.022370819002389908,-0.02022670768201351,0.03118896484375,-0.6792755126953125,-0.7217864990234375
3.42,-0.08592343330383301,0.05158889293670654,0.007574030198156834,0.0472259521484375,-0.6698760986328125,-0.710784912109375
3.44,-0.11212094873189926,0.07908789068460464,0.03816309943795204,0.050811767578125,-0.654022216796875,-0.721343994140625
3.46,-0.10332772135734558,0.06998414546251297,0.03845897689461708,0.0497589111328125,-0.650665283203125,-0.7295379638671875
3.48,-0.08319209516048431,0.035838425159454346,0.026397785171866417,0.0313720703125,-0.664031982421875,-0.7377777099609375
3.5,-0.058882489800453186,0.01780722662806511,0.0170317143201828,0.03070068359375,-0.67376708984375,-0.7423858642578125
3.52,-0.06436540931463242,0.03129613772034645,0.013551761396229267,0.0352325439453125,-0.67376708984375,-0.750213623046875
3.54,-0.06709727644920349,0.02894962579011917,0.03699610009789467,0.0400543212890625,-0.6685638427734375,-0.7545318603515625
3.56,-0.033178459852933884,0.012183696031570435,0.05452689155936241,0.0427093505859375,-0.6590423583984375,-0.7659149169921875
3.58,-0.023872843012213707,-0.0031854070257395506,0.057548247277736664,0.035888671875,-0.651092529296875,-0.770660400390625
3.6,-0.028784776106476784,0.020181700587272644,0.048836249858140945,0.02728271484375,-0.6550140380859375,-0.763580322265625
3.62,-0.045521412044763565,0.04980989918112755,0.019305255264043808,0.011474609375,-0.654632568359375,-0.75543212890625
3.64,-0.017163807526230812,0.04380819946527481,-0.005650429055094719,0.001312255859375,-0.6619110107421875,-0.7596282958984375
3.66,0.017719341441988945,0.020835241302847862,-0.01612437516450882,0.0153045654296875,-0.6580810546875,-0.7637481689453125
3.68,0.013424462638795376,0.06564559042453766,-0.013035641051828861,0.027496337890625,-0.6547698974609375,-0.7621307373046875
3.7,-0.027220701798796654,0.09994576871395111,-0.02220091037452221,0.033203125,-0.6496734619140625,-0.7486114501953125
3.72,-0.0953558161854744,0.04568865895271301,-0.020961740985512733,0.0330810546875,-0.655242919921875,-0.7290802001953125
3.74,-0.103594571352005,-0.01852414943277836,-0.011814314872026443,0.0387725830078125,-0.66070556640625,-0.723663330078125
3.76,-0.048237837851047516,0.01375123206526041,-0.007694671396166086,0.0345611572265625,-0.6519775390625,-0.76068115234375
3.78,-0.0016815199051052332,0.03599235415458679,-0.005342567339539528,0.026824951171875,-0.64154052734375,-0.79376220703125
3.8,0.04003210365772247,0.03122156858444214,-0.0021723404061049223,0.02825927734375,-0.642791748046875,-0.7873992919921875
3.82,0.047935035079717636,0.007517837453633547,-0.016883907839655876,0.02972412109375,-0.645599365234375,-0.775726318359375
3.84,0.013146162033081055,0.013322995975613594,-0.01980486325919628,0.0303955078125,-0.6561737060546875,-0.7565460205078125
3.86,-0.028987709432840347,0.009584716521203518,-0.019452527165412903,0.0362701416015625,-0.6575164794921875,-0.7393951416015625
3.88,-0.021327393129467964,0.014309963211417198,-0.027790619060397148,0.038299560546875,-0.6584320068359375,-0.7472686767578125
3.9,-0.012146677821874619,0.027829499915242195,-0.030375748872756958,0.032806396484375,-0.6524658203125,-0.76275634765625
3.92,0.01239035651087761,0.031788554042577744,-0.024947427213191986,0.0400390625,-0.6485595703125,-0.7626800537109375
3.94,0.023182017728686333,-0.018188325688242912,-0.025367408990859985,0.04083251953125,-0.6466827392578125,-0.76361083984375
3.96,0.00458782771602273,-0.015788283199071884,-0.01990979164838791,0.048065185546875,-0.646331787109375,-0.7477569580078125
3.98,-0.039449404925107956,0.01715741492807865,-0.015921441838145256,0.043975830078125,-0.644989013671875,-0.7436981201171875
4,-0.0732068344950676,0.020321249961853027,-0.01601012609899044,0.0452728271484375,-0.646453857421875,-0.7409820556640625
4.02,-0.050092726945877075,0.013019395060837269,-0.021638182923197746,0.0500946044921875,-0.650665283203125,-0.7513427734375
4.04,-0.024921061471104622,0.017724934965372086,-0.021387048065662384,0.045989990234375,-0.645751953125,-0.7692413330078125
4.06,-0.013145362958312035,0.017589112743735313,0.011544803157448769,0.052001953125,-0.6411895751953125,-0.77593994140625
4.08,-0.04175570234656334,-0.006220611743628979,0.03658517450094223,0.0688323974609375,-0.6359710693359375,-0.7671356201171875
4.1,-0.060018330812454224,-0.006954578682780266,0.047326769679784775,0.063995361328125,-0.6419677734375,-0.7548675537109375
4.12,-0.010063020512461662,-0.005021922755986452,0.03695269301533699,0.0467529296875,-0.6415557861328125,-0.77001953125
4.14,0.05810697749257088,-0.014541924931108952,0.026445455849170685,0.0374298095703125,-0.6392059326171875,-0.7926025390625
4.16,0.07540660351514816,-0.007595069240778685,0.026762371882796288,0.0350494384765625,-0.639129638671875,-0.7881317138671875
4.18,0.0717032179236412,0.01871776208281517,0.03154674172401428,0.0327911376953125,-0.639404296875,-0.7707061767578125
4.2,0.06337923556566238,0.03712606430053711,0.004090349189937115,0.02349853515625,-0.6436004638671875,-0.760711669921875
4.22,0.04135676100850105,0.04735979065299034,-0.018756110221147537,0.0158233642578125,-0.6544952392578125,-0.7493133544921875
4.24,0.002922286745160818,0.048835184425115585,-0.04098791256546974,0.0200653076171875,-0.6602783203125,-0.7316436767578125
4.26,-0.03983849287033081,0.0521545484662056,-0.05159102380275726,0.0288848876953125,-0.6659698486328125,-0.7269134521484375
4.28,-0.06388497352600098,0.0773824080824852,-0.05546192824840546,0.0353851318359375,-0.6624755859375,-0.7314910888671875
4.3,-0.07137218117713928,0.07682740688323975,-0.03868827223777771,0.046539306640625,-0.6537628173828125,-0.74908447265625
4.32,-0.061339523643255234,0.07771530002355576,-0.0444585457444191,0.052154541015625,-0.649322509765625,-0.7559967041015625
4.34,-0.04379381984472275,0.08491808921098709,-0.04486813768744469,0.0464935302734375,-0.6488494873046875,-0.77252197265625
4.36,-0.020085560157895088,0.05584036186337471,-0.014110492542386055,0.0554656982421875,-0.642486572265625,-0.77239990234375
4.38,-0.0199862252920866,0.01582876406610012,0.028254274278879166,0.0714874267578125,-0.6355743408203125,-0.7656402587890625
4.4,-0.01372486725449562,0.0072355424053967,0.06208920478820801,0.070648193359375,-0.6326141357421875,-0.7655029296875
4.42,-0.006995857693254948,-0.02785240299999714,0.0674075335264206,0.0592498779296875,-0.6326904296875,-0.7699127197265625
4.44,-0.033901508897542953,-0.07009972631931305,0.0647190734744072,0.0527191162109375,-0.64599609375,-0.7583160400390625
4.46,-0.06407032907009125,-0.08827366679906845,0.06598301231861115,0.051116943359375,-0.652618408203125,-0.7503509521484375
4.48,-0.047622378915548325,-0.05056384205818176,0.06315473467111588,0.039093017578125,-0.645233154296875,-0.767913818359375
4.5,0.036672793328762054,-0.044445496052503586,0.05771869048476219,0.0300445556640625,-0.6374969482421875,-0.7959136962890625
4.52,0.09515687823295593,-0.060150954872369766,0.044370125979185104,0.0319366455078125,-0.6356353759765625,-0.8055267333984375
4.54,0.07472430169582367,-0.05717673525214195,0.026103772222995758,0.0292205810546875,-0.643890380859375,-0.7781982421875
4.56,0.030672958120703697,-0.01853826455771923,-0.027105387300252914,0.0214996337890625,-0.65673828125,-0.744873046875
4.58,0.008027033880352974,0.047805074602365494,-0.07005791366100311,0.0051116943359375,-0.6658172607421875,-0.748077392578125
4.6,-0.0004916195175610483,0.07980135828256607,-0.09064894169569016,0.0159759521484375,-0.661285400390625,-0.7535400390625
4.62,-0.0015781891997903585,0.08376999944448471,-0.08397452533245087,0.0331573486328125,-0.6573028564453125,-0.7569732666015625
4.64,0.004680239129811525,0.07526892423629761,-0.07674644142389297,0.0496978759765625,-0.6513824462890625,-0.7552490234375
4.66,-0.025376196950674057,0.02942713163793087,-0.05198836699128151,0.0610504150390625,-0.647705078125,-0.746490478515625
4.68,-0.026493659242987633,0.006056827027350664,-0.014646320603787899,0.0646514892578125,-0.642730712890625,-0.7446136474609375
4.7,0.0030687605030834675,-0.04338555783033371,0.02599777840077877,0.06500244140625,-0.6362762451171875,-0.7637176513671875
4.72,0.05144987627863884,-0.07100999355316162,0.05225202068686485,0.05633544921875,-0.6398162841796875,-0.77947998046875
4.74,0.05979249253869057,-0.08338543772697449,0.03963422775268555,0.036224365234375,-0.64501953125,-0.7865447998046875
4.76,0.03321654349565506,-0.07346702367067337,0.009694971144199371,0.012908935546875,-0.655181884765625,-0.7783203125
4.78,0.021806228905916214,-0.0586199052631855,-0.029274266213178635,0.01116943359375,-0.658935546875,-0.767059326171875
4.8,0.03441869467496872,-0.06451933830976486,-0.042623359709978104,0.0186004638671875,-0.6492462158203125,-0.766845703125
4.82,0.03543974831700325,-0.051482897251844406,-0.010786068625748158,0.045074462890625,-0.63458251953125,-0.7613372802734375
4.84,0.02088184654712677,-0.011501127853989601,0.02094629406929016,0.0679779052734375,-0.6240081787109375,-0.756744384765625
4.86,0.00971361342817545,0.0022738068364560604,0.026214294135570526,0.07275390625,-0.631744384765625,-0.7491607666015625
4.88,-0.018560368567705154,-0.015065768733620644,0.0031348068732768297,0.0672454833984375,-0.6429595947265625,-0.7396697998046875
4.9,-0.022367622703313828,0.014690263196825981,-0.0065132929012179375,0.0572662353515625,-0.65765380859375,-0.73663330078125
4.92,-0.014571486040949821,0.025349564850330353,0.0020871192682534456,0.05377197265625,-0.6505126953125,-0.7604217529296875
4.94,-0.0012234562309458852,0.00805899128317833,0.006175337824970484,0.048492431640625,-0.6486053466796875,-0.7670440673828125
4.96,0.034516964107751846,-0.010247311554849148,-0.00646801944822073,0.040771484375,-0.650604248046875,-0.771087646484375
4.98,0.0541553795337677,-0.028961876407265663,-0.02936481311917305,0.0216522216796875,-0.6491546630859375,-0.7791900634765625
5,0.04240791127085686,-0.014369085431098938,-0.03087509237229824,0.0167236328125,-0.6536712646484375,-0.7653656005859375
5.02,0.018244251608848572,0.00242161238566041,-0.026702184230089188,0.017425537109375,-0.65118408203125,-0.7553558349609375
5.04,-0.006413424387574196,-0.02510109171271324,-0.0165408942848444,0.0234527587890625,-0.64990234375,-0.74468994140625
5.06,-0.017430922016501427,-0.038002509623765945,-0.012619654648005962,0.0306396484375,-0.6507110595703125,-0.7412567138671875
5.08,-0.02388269640505314,-0.012600746937096119,-0.026634274050593376,0.029327392578125,-0.655242919921875,-0.749908447265625
5.1,-0.028773324564099312,-0.014760304242372513,-0.044131774455308914,0.0276947021484375,-0.657806396484375,-0.7510986328125
5.12,-0.03879240155220032,-0.04235784336924553,-0.04151415452361107,0.0354461669921875,-0.6584625244140625,-0.7447052001953125
5.14,-0.04366998374462128,-0.026125343516469002,-0.03847202658653259,0.044464111328125,-0.6570281982421875,-0.747833251953125
5.16,-0.05151752009987831,0.020657075569033623,-0.03773432970046997,0.04229736328125,-0.658599853515625,-0.764801025390625
5.18,-0.024043817073106766,0.02123631350696087,-0.04345320165157318,0.03924560546875,-0.65350341796875,-0.77398681640625
5.2,0.0038578552193939686,0.01636485755443573,-0.026381539180874825,0.050689697265625,-0.6484222412109375,-0.78076171875
5.22,0.022190788760781288,0.016214122995734215,0.014511032029986382,0.0662841796875,-0.6403350830078125,-0.781646728515625
5.24,0.019649600610136986,0.01894998922944069,0.03893062099814415,0.0660858154296875,-0.6337432861328125,-0.773406982421875
5.26,0.040281910449266434,-0.006327670533210039,0.053039781749248505,0.0576171875,-0.63165283203125,-0.7664794921875
5.28,0.04983759671449661,-0.02021658793091774,0.06762564927339554,0.05413818359375,-0.6283416748046875,-0.769073486328125
5.3,0.014772022143006325,-0.0054669370874762535,0.08063359558582306,0.0452728271484375,-0.6325225830078125,-0.764129638671875
5.32,-0.0022485069930553436,0.0002545981842558831,0.06312330812215805,0.032135009765625,-0.64093017578125,-0.7512359619140625
5.34,0.01739417016506195,0.015170164406299591,0.0376720130443573,0.0109100341796875,-0.6537017822265625,-0.7570343017578125
5.36,0.03671194240450859,0.011768242344260216,0.005531119182705879,0.0049896240234375,-0.6576385498046875,-0.7686767578125
5.38,0.02743641845881939,0.001106809708289802,-0.023304790258407593,0.0054779052734375,-0.6674957275390625,-0.758544921875
5.4,-0.006851514335721731,-0.0018287927377969027,-0.04915023595094681,0.00811767578125,-0.6700592041015625,-0.74267578125
5.42,-0.04638347774744034,0.017531322315335274,-0.04676670581102371,0.0221405029296875,-0.6667938232421875,-0.73785400390625
5.44,-0.05059020593762398,0.01727326214313507,-0.043953076004981995,0.03704833984375,-0.660247802734375,-0.7452545166015625
5.46,-0.011869442649185658,-0.010874219238758087,-0.035949479788541794,0.042633056640625,-0.651275634765625,-0.7599029541015625
5.48,0.01152536179870367,-0.024878185242414474,-0.011921107769012451,0.055755615234375,-0.639434814453125,-0.771453857421875
5.5,-0.0033992587123066187,-0.008612662553787231,0.023566313087940216,0.065277099609375,-0.6358642578125,-0.7703094482421875
5.52,0.005970807280391455,0.007582818623632193,0.03410390764474869,0.0597686767578125,-0.6383056640625,-0.767974853515625
5.54,0.05735383555293083,0.012677978724241257,0.03635480999946594,0.042205810546875,-0.64208984375,-0.784332275390625
5.56,0.09632280468940735,0.008081096224486828,0.03397847339510918,0.0329437255859375,-0.644317626953125,-0.7859649658203125
5.58,0.08586430549621582,-0.012585300020873547,0.02742949314415455,0.0289459228515625,-0.64990234375,-0.768157958984375
5.6,0.04583752900362015,-0.004000600427389145,0.010188455693423748,0.0284576416015625,-0.659576416015625,-0.7359619140625
5.62,0.0035654399544000626,0.006341785658150911,-0.022583872079849243,0.0169677734375,-0.6654815673828125,-0.7238616943359375
5.64,-0.029468409717082977,0.008531969040632248,-0.029455892741680145,0.0169219970703125,-0.664031982421875,-0.7249603271484375
5.66,-0.0620572455227375,-0.011727229692041874,-0.02671550028026104,0.030029296875,-0.660919189453125,-0.7281646728515625
5.68,-0.06764589250087738,-0.014091317541897297,-0.02942393533885479,0.0358734130859375,-0.6578826904296875,-0.73773193359375
5.7,-0.05517537146806717,0.00236302288249135,-0.03458460792899132,0.0308837890625,-0.6532135009765625,-0.7604827880859375
5.72,-0.023080285638570786,0.011974903754889965,-0.033119335770606995,0.0315399169921875,-0.6485443115234375,-0.781463623046875
5.74,0.01270061545073986,0.02474396303296089,-0.033911094069480896,0.036285400390625,-0.6458587646484375,-0.791168212890625
5.76,0.054064568132162094,0.015794143080711365,-0.0065801385790109634,0.046844482421875,-0.6416168212890625,-0.7885589599609375
5.78,0.08275266736745834,0.007006510626524687,0.013980263844132423,0.0553131103515625,-0.633270263671875,-0.782379150390625
5.8,0.0631568655371666,-0.005638444796204567,0.028123512864112854,0.058380126953125,-0.633270263671875,-0.762786865234375
5.82,0.012395949102938175,-0.006697850301861763,0.03641553223133087,0.0526580810546875,-0.6441650390625,-0.7390899658203125
5.84,-0.03365116938948631,-0.01654728502035141,0.04153279587626457,0.0511322021484375,-0.65234375,-0.729400634765625
5.86,-0.044865742325782776,-0.008298676460981369,0.01708977110683918,0.0373382568359375,-0.6589813232421875,-0.73699951171875
5.88,-0.029636988416314125,0.016286827623844147,0.001764077926054597,0.0229949951171875,-0.66168212890625,-0.75750732421875
5.9,0.0007142598042264581,0.010586597956717014,0.00881186779588461,0.0251922607421875,-0.65838623046875,-0.774810791015625
5.92,0.019771840423345566,-0.005967877805233002,0.015499064698815346,0.03607177734375,-0.6528472900390625,-0.771331787109375
5.94,0.02737516537308693,-0.0044410875998437405,0.0059867859818041325,0.03497314453125,-0.6517791748046875,-0.766082763671875
5.96,0.019526297226548195,-0.004575044382363558,-0.0024588967207819223,0.0299224853515625,-0.6562957763671875,-0.76226806640625
5.98,0.011812717653810978,0.007126885466277599,-0.0027145601343363523,0.031341552734375,-0.655181884765625,-0.75640869140625
6,0.019055450335144997,-0.0014716627774760127,0.0006793724023737013,0.0380096435546875,-0.64801025390625,-0.7538604736328125
6.02,0.025293905287981033,-0.008273908868432045,0.012707007117569447,0.0423583984375,-0.644805908203125,-0.75689697265625
6.04,0.013581322506070137,-0.02749633975327015,0.023422768339514732,0.0402374267578125,-0.6479949951171875,-0.75445556640625
6.06,-0.002657035831362009,-0.031438883394002914,0.025000691413879395,0.04083251953125,-0.650848388671875,-0.7470550537109375
6.08,-0.03262292593717575,-0.02851446531713009,0.016698285937309265,0.033477783203125,-0.6551361083984375,-0.744537353515625
6.1,-0.03092276304960251,-0.0014482269762083888,-0.00532499048858881,0.0239105224609375,-0.661346435546875,-0.7466888427734375
6.12,0.005813147872686386,0.02917413040995598,-0.015104650519788265,0.0164031982421875,-0.6597747802734375,-0.7702484130859375
6.14,0.02664998732507229,0.0008737831376492977,-0.01866263337433338,0.025360107421875,-0.6531982421875,-0.777099609375
6.16,0.029527798295021057,-0.017532920464873314,-0.0028735508676618338,0.0337982177734375,-0.6518707275390625,-0.764129638671875
6.18,0.006404902320355177,0.00361817074008286,-0.0021789984311908484,0.044342041015625,-0.64788818359375,-0.751556396484375
6.2,0.011800467036664486,0.019752666354179382,-0.004530835896730423,0.0380706787109375,-0.64788818359375,-0.7481231689453125
6.22,0.01720641739666462,0.00618199585005641,-0.013556022197008133,0.0364837646484375,-0.6427459716796875,-0.75140380859375
6.24,-0.014848987571895123,-0.0007550061563961208,-0.00436065997928381,0.0394134521484375,-0.6462860107421875,-0.7480316162109375
6.26,-0.055798549205064774,0.01197783276438713,0.0034266894217580557,0.0398406982421875,-0.64495849609375,-0.7400360107421875
6.28,-0.04211363196372986,0.0029289445374161005,0.005287972744554281,0.0350799560546875,-0.6481781005859375,-0.747894287109375
6.3,-0.012763465754687786,0.005077316425740719,-0.009532252326607704,0.0294189453125,-0.646759033203125,-0.76824951171875
6.32,-0.0076057217083871365,0.024410801008343697,-0.008738630451261997,0.02545166015625,-0.6510162353515625,-0.7713623046875
6.34,0.0035185683518648148,0.018547585234045982,-0.006624879315495491,0.0287322998046875,-0.653533935546875,-0.765716552734375
6.36,0.004612861201167107,0.006612096447497606,-0.01468600146472454,0.030303955078125,-0.65399169921875,-0.762451171875
6.38,-0.01709350012242794,0.01853213831782341,-0.020125241950154305,0.0301971435546875,-0.6597442626953125,-0.7572021484375
6.4,-0.03406769037246704,0.024418257176876068,-0.01798113062977791,0.0344696044921875,-0.6527252197265625,-0.7492523193359375
6.42,-0.01007713470607996,-0.00025513084256090224,-0.012736568227410316,0.04083251953125,-0.646728515625,-0.75384521484375
6.44,0.009552226401865482,0.0011163970921188593,0.0005744438385590911,0.0426177978515625,-0.6448516845703125,-0.7679901123046875
6.46,-0.0035297537688165903,0.005519933998584747,0.016871390864253044,0.0478057861328125,-0.641265869140625,-0.7649993896484375
6.48,-0.010731473565101624,0.004572647623717785,0.022268021479249,0.0412139892578125,-0.6443328857421875,-0.755950927734375
6.5,-0.013002883642911911,0.006640059407800436,0.009052351117134094,0.03350830078125,-0.650360107421875,-0.7575531005859375
6.52,0.0012120045721530914,0.021749237552285194,-0.0065228804014623165,0.020721435546875,-0.655364990234375,-0.7638702392578125
6.54,0.010065949521958828,0.02195696346461773,-0.007614243775606155,0.0230560302734375,-0.6504669189453125,-0.764617919921875
6.56,-0.00347489258274436,0.0012876383261755109,-0.0041462755762040615,0.033477783203125,-0.64825439453125,-0.75537109375
6.58,-0.01853666640818119,0.001008539111353457,-0.00469462014734745,0.0377044677734375,-0.652740478515625,-0.74761962890625
6.6,-0.04791053384542465,0.010253436863422394,-0.0015076154377311468,0.0373687744140625,-0.6550140380859375,-0.7487640380859375
6.62,-0.05525047332048416,0.003064499469473958,-0.0013920343481004238,0.0363616943359375,-0.65350341796875,-0.75146484375
6.64,-0.03825604170560837,0.013166402466595173,-0.00731304008513689,0.035308837890625,-0.6488494873046875,-0.75604248046875
6.66,-0.01588655449450016,0.0285877026617527,-0.0021374530624598265,0.0309295654296875,-0.641357421875,-0.7719573974609375
6.68,-0.015015967190265656,0.030919566750526428,0.002301770029589534,0.034942626953125,-0.6425018310546875,-0.77099609375
6.7,-0.024648088961839676,0.01787407137453556,0.013884922489523888,0.0406646728515625,-0.646453857421875,-0.7613677978515625
6.72,-0.050630684942007065,0.004886367823928595,0.02473970130085945,0.043914794921875,-0.64617919921875,-0.7498016357421875
6.74,-0.06519898027181625,-0.016473781317472458,0.041491515934467316,0.0466461181640625,-0.6470947265625,-0.745086669921875
6.76,-0.06346605718135834,-0.0037286917213350534,0.025911491364240646,0.044647216796875,-0.64434814453125,-0.7525787353515625
6.78,-0.043123502284288406,0.047030624002218246,-0.002413356676697731,0.0238189697265625,-0.6472930908203125,-0.7770233154296875
6.8,-0.01985253393650055,0.04565590247511864,-0.007525294087827206,0.0223541259765625,-0.644989013671875,-0.7872772216796875
6.82,-0.004861867055296898,0.01991724967956543,0.0023513049818575382,0.0343017578125,-0.6449127197265625,-0.7802734375
6.84,-0.014824486337602139,0.008526110090315342,0.0017725999932736158,0.0404205322265625,-0.645843505859375,-0.7678375244140625
6.86,-0.021858694031834602,0.012403139844536781,-0.007169495802372694,0.0355224609375,-0.6459503173828125,-0.7626190185546875
6.88,-0.020680777728557587,0.02208000235259533,-0.016084693372249603,0.028289794921875,-0.6454925537109375,-0.765655517578125
6.9,-0.011245996691286564,0.02991102635860443,-0.020799821242690086,0.027618408203125,-0.64385986328125,-0.772430419921875
6.92,-0.0023555660154670477,0.02393915504217148,-0.024210264906287193,0.032440185546875,-0.6414337158203125,-0.7737884521484375
6.94,0.01522715575993061,0.012930979020893574,-0.0161222442984581,0.0343170166015625,-0.6433563232421875,-0.7691802978515625
6.96,0.0037260286044329405,0.005827528890222311,0.0023667511995881796,0.04937744140625,-0.636322021484375,-0.7617034912109375
6.98,-0.038471758365631104,-0.006412093061953783,0.0008098672842606902,0.05145263671875,-0.63848876953125,-0.752044677734375
7,-0.05113748461008072,0.011419101618230343,0.006910636555403471,0.045806884765625,-0.6421051025390625,-0.750579833984375
7.02,-0.018520420417189598,0.023728499189019203,0.005824865773320198,0.0452728271484375,-0.6371307373046875,-0.771728515625
7.04,0.00430153775960207,0.010033725760877132,0.015208779834210873,0.0429534912109375,-0.6370849609375,-0.7842559814453125
7.06,-0.004279966000467539,-0.004054396413266659,0.020477311685681343,0.0441131591796875,-0.6385345458984375,-0.7737274169921875
7.08,-0.00691889226436615,-0.005497829522937536,0.02195936068892479,0.0347747802734375,-0.6439361572265625,-0.772705078125
7.1,0.0008689894457347691,-0.00010998855577781796,0.009159675799310207,0.0347747802734375,-0.6439361572265625,-0.772705078125
7.12,0.008156197145581245,0.012035091407597065,-0.00968591682612896,0.028564453125,-0.64312744140625,-0.771392822265625
7.14,0.026377812027931213,0.019947076216340065,-0.01327079813927412,0.02520751953125,-0.6414642333984375,-0.7736968994140625
7.16,0.015158180147409439,0.013221529312431812,-0.014868161641061306,0.0344085693359375,-0.6390533447265625,-0.7687225341796875
7.18,-0.0029108349699527025,-0.002641855739057064,-0.008983640931546688,0.03961181640625,-0.64208984375,-0.7576446533203125
7.2,-0.021986791864037514,-0.007472563534975052,-0.010754376649856567,0.0391845703125,-0.642913818359375,-0.7539825439453125
7.22,-0.025533588603138924,-0.0000857537888805382,-0.011332815513014793,0.0392303466796875,-0.642974853515625,-0.7586822509765625
7.24,-0.016401343047618866,0.0230571161955595,-0.0010873686987906694,0.04290771484375,-0.6378936767578125,-0.7677154541015625
7.26,0.0028780782595276833,0.01902162842452526,-0.005869340617209673,0.04229736328125,-0.635528564453125,-0.774505615234375
7.28,0.020548950880765915,-0.0034791536163538694,0.0019443739438429475,0.0437469482421875,-0.6403961181640625,-0.7773590087890625
7.3,0.011826299130916595,-0.004010187927633524,0.011572233401238918,0.045562744140625,-0.6385955810546875,-0.771148681640625
7.32,0.0073263561353087425,-0.0018354506464675069,0.020298346877098083,0.0437469482421875,-0.6398773193359375,-0.7696075439453125
7.34,-0.006344448775053024,-0.0044014062732458115,0.016442090272903442,0.0416717529296875,-0.6411285400390625,-0.7653656005859375
7.36,-0.018878882750868797,0.002956907730549574,0.008107727393507957,0.03656005859375,-0.6429290771484375,-0.7597808837890625
7.38,-0.0038629150949418545,0.006188387516885996,-0.009924535639584064,0.0317230224609375,-0.6400146484375,-0.7625885009765625
7.4,0.019345201551914215,0.005323659162968397,-0.0032083101104944944,0.0316925048828125,-0.6390533447265625,-0.7758941650390625
7.42,-0.003610979998484254,-0.009759685955941677,0.0001739044237183407,0.0402069091796875,-0.6385345458984375,-0.7733001708984375
7.44,-0.015921175479888916,-0.0031904669012874365,0.010814830660820007,0.0421295166015625,-0.642822265625,-0.7593841552734375
7.46,0.0011416971683502197,-0.0019166769925504923,0.005782521795481443,0.0401153564453125,-0.642181396484375,-0.7708892822265625
7.48,0.02003655955195427,0.01678643748164177,-0.005513808690011501,0.030975341796875,-0.6416015625,-0.7790679931640625
7.5,0.02635624073445797,0.0120702451094985,-0.012079299427568913,0.0319061279296875,-0.6432342529296875,-0.7792816162109375
7.52,0.017043964937329292,-0.004466653801500797,-0.0032804817892611027,0.0369415283203125,-0.64263916015625,-0.7687835693359375
7.54,-0.004318049177527428,-0.006083725020289421,0.003949201665818691,0.0465087890625,-0.6402435302734375,-0.7576904296875
7.56,-0.01619654707610607,0.00603498937562108,0.011324293911457062,0.04571533203125,-0.638031005859375,-0.75714111328125
7.58,0.005188636481761932,-0.0017422399250790477,0.015047126449644566,0.0422515869140625,-0.6344451904296875,-0.7656402587890625
7.6,0.02515888214111328,-0.012358132749795914,0.016100140288472176,0.0450592041015625,-0.6357574462890625,-0.7718963623046875
7.62,0.0209478922188282,-0.007546333130449057,0.026612436398863792,0.0455322265625,-0.6378936767578125,-0.773468017578125
7.64,0.010973022319376469,0.001606418751180172,0.03401176258921623,0.0438079833984375,-0.638336181640625,-0.7691192626953125
7.66,0.014387994073331356,-0.00777616398409009,0.020125241950154305,0.036651611328125,-0.64288330078125,-0.7674102783203125
7.68,0.014781076461076736,0.014064153656363487,0.005891977343708277,0.0247344970703125,-0.64501953125,-0.768585205078125
7.7,0.028382904827594757,0.021036310121417046,0.0009784454014152288,0.0240936279296875,-0.643402099609375,-0.77471923828125
7.72,0.044614072889089584,0.002246642718091607,-0.007183078210800886,0.0283203125,-0.6414947509765625,-0.77166748046875
7.74,0.023875504732131958,-0.013003416359424591,-0.011053982190787792,0.03131103515625,-0.6441497802734375,-0.7629241943359375
7.76,-0.02196042612195015,-0.0010490191634744406,-0.0036301547661423683,0.0375518798828125,-0.6442718505859375,-0.7430877685546875
7.78,-0.05750696733593941,0.006656304933130741,-0.004411792848259211,0.0391998291015625,-0.6452484130859375,-0.7410430908203125
7.8,-0.03947736695408821,0.01056289579719305,-0.013552294112741947,0.03302001953125,-0.6444549560546875,-0.7552642822265625
7.82,-0.005092762876302004,0.023126091808080673,-0.006100236903876066,0.032318115234375,-0.640869140625,-0.77789306640625
7.84,0.021149493753910065,0.009497098624706268,0.01441142987459898,0.0437164306640625,-0.634246826171875,-0.78179931640625
7.86,0.0863676443696022,-0.012106730602681637,0.021914619952440262,0.0455780029296875,-0.638397216796875,-0.7773895263671875
7.88,0.10854538530111313,-0.03801688924431801,0.02160755731165409,0.0425872802734375,-0.633636474609375,-0.790252685546875
7.9,0.0992746576666832,-0.007479221560060978,0.023378293961286545,0.0362091064453125,-0.6453704833984375,-0.7823486328125
7.92,0.07109761238098145,0.016049806028604507,-0.0005536712124012411,0.0294036865234375,-0.642578125,-0.7755584716796875
7.94,0.025831863284111023,0.0008319715270772576,-0.005936718545854092,0.028411865234375,-0.653411865234375,-0.755859375
7.96,0.007843808270990849,-0.003665574826300144,-0.006674148142337799,0.03338623046875,-0.6493682861328125,-0.7406158447265625
7.98,0.016625314950942993,0.0013704627053812146,-0.014725150540471077,0.0345916748046875,-0.648345947265625,-0.7487945556640625
8,0.0062853265553712845,-0.009607619605958462,-0.016745423898100853,0.0297698974609375,-0.6464996337890625,-0.754638671875
8.02,-0.0049550775438547134,-0.004290885291993618,-0.0041215079836547375,0.038909912109375,-0.6460418701171875,-0.750885009765625
8.04,-0.0015550197567790747,0.004009921569377184,0.0010966897243633866,0.0411834716796875,-0.6459503173828125,-0.75689697265625
8.06,0.020176108926534653,0.0037089844699949026,-0.011574630625545979,0.0316619873046875,-0.6465911865234375,-0.7695465087890625
8.08,0.013224459253251553,-0.0013957626651972532,-0.01582343690097332,0.029541015625,-0.6518096923828125,-0.769989013671875
8.1,0.008606537245213985,-0.00047617321251891553,-0.008315187878906727,0.0363006591796875,-0.6499176025390625,-0.760589599609375
8.12,0.054796136915683746,0.0051713259890675545,-0.0025212145410478115,0.0387420654296875,-0.6481170654296875,-0.7711029052734375
8.14,0.08228155970573425,0.0037348170299082994,0.0017667410429567099,0.036590576171875,-0.642974853515625,-0.77886962890625
8.16,0.06768157333135605,0.014782940968871117,0.0172096136957407,0.039703369140625,-0.64520263671875,-0.764068603515625
8.18,0.05350423604249954,0.011661715805530548,0.013063337653875351,0.0464935302734375,-0.644866943359375,-0.7536163330078125
8.2,0.04992441460490227,0.004969192203134298,0.005919141694903374,0.0390472412109375,-0.645843505859375,-0.750244140625
8.22,0.023633157834410667,-0.015749935060739517,0.00045327001134864986,0.0394287109375,-0.6475372314453125,-0.7539520263671875
8.24,-0.007458448875695467,0.004254133440554142,0.01877475343644619,0.0402679443359375,-0.6478118896484375,-0.744171142578125
8.26,-0.0013140037190169096,0.013117932714521885,-0.00726483715698123,0.0287933349609375,-0.651763916015625,-0.752716064453125
8.28,0.03803792968392372,0.021344436332583427,-0.024767132475972176,0.019622802734375,-0.65283203125,-0.7645416259765625
8.3,0.05010737478733063,0.01587616838514805,-0.023558055981993675,0.0233001708984375,-0.6533050537109375,-0.766937255859375
8.32,0.04090295732021332,-0.003513242118060589,-0.007933024317026138,0.0351409912109375,-0.6503448486328125,-0.75164794921875
8.34,0.0049215215258300304,-0.005006476305425167,-0.014646586962044239,0.04345703125,-0.6514739990234375,-0.7405242919921875
8.36,-0.027345603331923485,0.010802047327160835,-0.028028437867760658,0.03143310546875,-0.656494140625,-0.743865966796875
8.38,-0.021991584450006485,0.029135780408978462,-0.03386449068784714,0.028839111328125,-0.6567840576171875,-0.7546234130859375
8.4,0.016918262466788292,0.03194914385676384,-0.025561019778251648,0.03765869140625,-0.6523895263671875,-0.770355224609375
8.42,0.03208975866436958,-0.00336144189350307,0.000669252360239625,0.0505828857421875,-0.6468963623046875,-0.7669525146484375
8.44,0.01423486229032278,-0.027043601498007774,0.013631124049425125,0.053253173828125,-0.646942138671875,-0.75091552734375
8.46,0.01221884973347187,-0.020306071266531944,0.02533225528895855,0.050811767578125,-0.6534576416015625,-0.7462158203125
8.48,0.021439777687191963,0.013163738884031773,0.022306904196739197,0.0456695556640625,-0.6525421142578125,-0.7596893310546875
8.5,0.02496234141290188,0.027127491310238838,0.008194546215236187,0.03570556640625,-0.6565704345703125,-0.7670440673828125
8.52,0.0317147858440876,0.02749527432024479,-0.0059907808899879456,0.029144287109375,-0.65924072265625,-0.7606964111328125
8.54,0.03351961076259613,0.029475068673491478,0.006009955424815416,0.0349578857421875,-0.6579742431640625,-0.7558441162109375
8.56,0.026924291625618935,0.013067065738141537,0.03350869193673134,0.0464324951171875,-0.6534881591796875,-0.74884033203125
8.58,0.06388044357299805,-0.014034858904778957,0.0605485662817955,0.05108642578125,-0.6510162353515625,-0.741180419921875
8.6,0.04736165702342987,-0.03237205371260643,0.03309563547372818,0.04541015625,-0.6475677490234375,-0.75018310546875
8.62,-0.022783342748880386,0.014566692523658276,0.021894114091992378,0.0296630859375,-0.6593017578125,-0.7451934814453125
8.64,-0.049246110022068024,0.031805332750082016,0.022729281336069107,0.0293121337890625,-0.6589813232421875,-0.7410430908203125
8.66,-0.021710088476538658,0.003055444685742259,-0.00041758365114219487,0.0255126953125,-0.66046142578125,-0.750732421875
8.68,0.007477357517927885,0.004327636677771807,-0.012199142016470432,0.0217742919921875,-0.6651763916015625,-0.7622222900390625
8.7,0.019402991980314255,0.016707606613636017,-0.0054365769028663635,0.0294952392578125,-0.66094970703125,-0.766082763671875
8.72,0.023196665570139885,0.025612153112888336,0.00039734362508170307,0.0343170166015625,-0.656982421875,-0.7600555419921875
8.74,0.02014974318444729,0.0026405241806060076,0.002055161399766803,0.0369415283203125,-0.6578216552734375,-0.7514801025390625
8.76,-0.022589731961488724,0.008737298659980297,0.002547047333791852,0.043243408203125,-0.6575775146484375,-0.7372283935546875
8.78,-0.0690658837556839,0.0127008818089962,0.00546240946277976,0.0433502197265625,-0.6556549072265625,-0.731048583984375
8.8,-0.036009132862091064,0.01787061057984829,-0.00567093538120389,0.0362396240234375,-0.6535186767578125,-0.743072509765625
8.82,-0.0005627259379252791,0.014138988219201565,-0.0006900250446051359,0.034393310546875,-0.6538848876953125,-0.7696380615234375
8.84,0.008620119653642178,0.019356653094291687,0.013523798435926437,0.0362701416015625,-0.65142822265625,-0.7738037109375
8.86,0.02034308761358261,0.007606787141412497,0.02051672711968422,0.0372467041015625,-0.653411865234375,-0.7685089111328125
8.88,0.00917379092425108,-0.010822554118931293,0.015749135985970497,0.0363311767578125,-0.6576995849609375,-0.757598876953125
8.9,-0.0020303940400481224,-0.009897904470562935,0.003004844533279538,0.031097412109375,-0.6605987548828125,-0.7469940185546875
8.92,-0.0025513083674013615,0.016336629167199135,-0.01050430629402399,0.025543212890625,-0.657989501953125,-0.7459869384765625
8.94,0.0018722022650763392,0.03897962346673012,-0.021403824910521507,0.0242462158203125,-0.655181884765625,-0.75677490234375
8.96,0.0036155073903501034,0.022346051409840584,-0.012370117008686066,0.032928466796875,-0.654205322265625,-0.75543212890625
8.98,-0.0034698324743658304,-0.005971073638647795,-0.008854211308062077,0.042694091796875,-0.656768798828125,-0.748016357421875
9,-0.02105654962360859,0.013253487646579742,-0.009966613724827766,0.041748046875,-0.6575775146484375,-0.746063232421875
9.02,-0.03308817744255066,0.01498054713010788,-0.005124188028275967,0.0391693115234375,-0.656341552734375,-0.7475738525390625
9.04,-0.03193076699972153,0.0020333235152065754,0.004200337454676628,0.0384368896484375,-0.655426025390625,-0.7492828369140625
9.06,-0.010484332218766212,0.0014990933705121279,0.000254331884207204,0.036956787109375,-0.658416748046875,-0.7593536376953125
9.08,0.02648433856666088,0.01992577128112316,0.001630387152545154,0.0341949462890625,-0.65460205078125,-0.7731475830078125
9.1,0.0303786788135767,0.0056392434053123,0.0017592841759324074,0.0385589599609375,-0.653167724609375,-0.771087646484375
9.12,0.010453440248966217,0.0007816377910785377,0.0007387608638964593,0.038848876953125,-0.65863037109375,-0.7523040771484375
9.14,-0.02088078111410141,0.009574330411851406,-0.002686863299459219,0.03778076171875,-0.657196044921875,-0.7431793212890625
9.16,-0.017835190519690514,0.011726164259016514,0.008992163464426994,0.0402069091796875,-0.653656005859375,-0.7447662353515625
9.18,0.003703924361616373,-0.001437041675671935,0.008718390017747879,0.042755126953125,-0.6483154296875,-0.7554473876953125
9.2,0.000580036488827318,-0.007535147946327925,0.007760717533528805,0.0391998291015625,-0.65008544921875,-0.756805419921875
9.22,-0.011747470125555992,0.013381585478782654,0.017405355349183083,0.036773681640625,-0.65313720703125,-0.7525787353515625
9.24,-0.01110644731670618,0.010398312471807003,0.010392453521490097,0.0376129150390625,-0.6533203125,-0.75274658203125
9.26,-0.004285558592528105,0.006688262801617384,-0.01104599330574274,0.0277557373046875,-0.66058349609375,-0.756256103515625
9.28,-0.006147641222923994,0.01576112024486065,-0.024205736815929413,0.0247802734375,-0.6625823974609375,-0.7592620849609375
9.3,0.005404885392636061,0.026994599029421806,-0.010190052911639214,0.0322113037109375,-0.6590118408203125,-0.7631683349609375
9.32,0.0073316823691129684,0.014449247159063816,0.002350772265344858,0.042877197265625,-0.6529541015625,-0.7597503662109375
9.34,-0.0017749968683347106,-0.004193679895251989,0.007948470301926136,0.0479736328125,-0.6511077880859375,-0.7512054443359375
9.36,0.00207726564258337,-0.009594570845365524,0.010202303528785706,0.04339599609375,-0.652069091796875,-0.74884033203125
9.38,0.02123338356614113,0.01846502721309662,0.00629038643091917,0.0427093505859375,-0.649505615234375,-0.7609405517578125
9.4,0.019036009907722473,0.013653494417667389,0.004483165219426155,0.0362091064453125,-0.6506500244140625,-0.7628173828125
9.42,-0.0013587448047474027,0.0011922972043976188,0.011267567984759808,0.0397491455078125,-0.656982421875,-0.74908447265625
9.44,-0.021334316581487656,-0.0029414615128189325,0.01943335309624672,0.0412445068359375,-0.6579742431640625,-0.7438201904296875
9.46,-0.021097294986248016,-0.0007313040550798178,0.01378105953335762,0.038360595703125,-0.65789794921875,-0.7494964599609375
9.48,-0.004340952727943659,0.011197793297469616,-0.008143413811922073,0.0273284912109375,-0.6560821533203125,-0.7578582763671875
9.5,0.018860772252082825,0.024091221392154694,-0.016025571152567863,0.021209716796875,-0.6566162109375,-0.765655517578125
9.52,0.028731513768434525,0.006416353862732649,-0.00999084860086441,0.0304718017578125,-0.65496826171875,-0.7657318115234375
9.54,0.005283178761601448,-0.01041402481496334,0.00330205331556499,0.042510986328125,-0.6544189453125,-0.752197265625
9.56,-0.014447649009525776,0.005417136009782553,0.00788428820669651,0.0465087890625,-0.6541900634765625,-0.7401885986328125
9.58,-0.026373816654086113,0.0062123560346663,-0.008755141869187355,0.0375518798828125,-0.652313232421875,-0.7479705810546875
9.6,-0.014642059803009033,0.027965055778622627,-0.01515897922217846,0.0307464599609375,-0.6572723388671875,-0.755615234375
9.62,0.00242134602740407,0.02273380756378174,-0.008778044953942299,0.0341339111328125,-0.6537017822265625,-0.761505126953125
9.64,0.006374808494001627,-0.004087419714778662,0.00583764910697937,0.047027587890625,-0.6537933349609375,-0.7581329345703125
9.66,0.0008511462947353721,-0.01116157416254282,0.014797587879002094,0.0440826416015625,-0.6532440185546875,-0.75457763671875
9.68,0.011714979074895382,-0.00034727618913166225,0.006168946158140898,0.03839111328125,-0.6552581787109375,-0.7601318359375
9.7,0.02033483237028122,0.017376858741044998,0.002560629276558757,0.03521728515625,-0.6555938720703125,-0.763763427734375
9.72,0.025226261466741562,0.012937902472913265,-0.008489358238875866,0.033172607421875,-0.6556854248046875,-0.761749267578125
9.74,0.016815997660160065,-0.0017992316279560328,-0.01601092517375946,0.0325469970703125,-0.658721923828125,-0.753753662109375
9.76,0.003203516360372305,0.007174289785325527,-0.001591505017131567,0.0384674072265625,-0.6560821533203125,-0.7471771240234375
9.78,-0.0004242415598127991,0.0019086875254288316,0.009283779188990593,0.0452880859375,-0.6521148681640625,-0.749755859375
9.8,-0.004258128348737955,-0.009505354799330235,0.007199056912213564,0.0460662841796875,-0.6517181396484375,-0.7498321533203125
9.82,-0.010896323248744011,-0.006325007416307926,0.00043223105603829026,0.0386199951171875,-0.65435791015625,-0.7484893798828125
9.84,-0.007608118467032909,0.005044293589890003,-0.0070579093880951405,0.0341033935546875,-0.6575469970703125,-0.7523956298828125
9.86,-0.008672317489981651,-0.003967044875025749,-0.006531136110424995,0.031585693359375,-0.6579132080078125,-0.760833740234375
9.88,0.0031878037843853235,0.008656871505081654,-0.005906891077756882,0.0342864990234375,-0.659759521484375,-0.7617950439453125
9.9,0.02888704091310501,0.023375896736979485,-0.006869890261441469,0.034698486328125,-0.656951904296875,-0.769134521484375
9.92,0.05727047845721245,0.009065399877727032,-0.0017121462151408195,0.03662109375,-0.6586151123046875,-0.769195556640625
9.94,0.04110269621014595,-0.006569485645741224,0.003674629610031843,0.04290771484375,-0.6560211181640625,-0.75506591796875
9.96,-0.0005331648280844092,-0.017527062445878983,0.012830311432480812,0.044891357421875,-0.6546173095703125,-0.7358245849609375
9.98,-0.004171042703092098,-0.009881925769150257,0.009926400147378445,0.042724609375,-0.655487060546875,-0.7344207763671875
10,0.014516358263790607,0.0009227853151969612,-0.0009052084642462432,0.0358428955078125,-0.6561737060546875,-0.750946044921875
10.02,0.0043505397625267506,-0.0009299758239649236,0.004148139618337154,0.0335693359375,-0.6561279296875,-0.7541656494140625
10.04,-0.012820989824831486,-0.010381801053881645,0.0068091703578829765,0.03955078125,-0.6585845947265625,-0.7474212646484375
10.06,-0.005858688149601221,0.0013970943400636315,0.01002040971070528,0.03717041015625,-0.6575775146484375,-0.755035400390625
10.08,0.026681412011384964,0.00920361839234829,0.005882923025637865,0.034759521484375,-0.6578369140625,-0.7678985595703125
10.1,0.04688148945569992,-0.0009297095239162445,-0.0016247945604845881,0.0310516357421875,-0.65582275390625,-0.772735595703125
10.12,0.04733848571777344,-0.00791544746607542,-0.002600576728582382,0.0312347412109375,-0.6552276611328125,-0.7575836181640625
10.14,0.030908381566405296,-0.003971572034060955,0.00347409350797534,0.03875732421875,-0.656219482421875,-0.748443603515625
10.16,-0.000251402409048751,-0.005613677203655243,0.002584597794339061,0.0372161865234375,-0.6547088623046875,-0.737945556640625
10.18,-0.02418336644768715,-0.006055762059986591,-0.001121989800594747,0.0343475341796875,-0.659820556640625,-0.7300872802734375
10.2,-0.022063490003347397,-0.0018804579740390182,-0.003032275242730975,0.03387451171875,-0.65777587890625,-0.7388916015625
10.22,-0.0075726984068751335,0.0033712955191731453,-0.01152482908219099,0.030364990234375,-0.6597442626953125,-0.7503814697265625
10.24,0.011357316747307777,0.002356631215661764,-0.006740726996213198,0.035430908203125,-0.65972900390625,-0.760467529296875
10.26,0.019224826246500015,-0.008914398960769176,0.01242391299456358,0.04180908203125,-0.658966064453125,-0.76287841796875
10.28,0.020179836079478264,-0.0237620547413826,0.01507136132568121,0.0450897216796875,-0.657562255859375,-0.759246826171875
10.3,0.013233513571321964,-0.018124142661690712,0.003194727934896946,0.038238525390625,-0.661651611328125,-0.7530517578125
10.32,0.02014974318444729,0.013195962645113468,-0.010341587476432323,0.0263671875,-0.6624908447265625,-0.757965087890625
10.34,0.04314001277089119,0.02701670303940773,-0.014543522149324417,0.023773193359375,-0.658721923828125,-0.7640380859375
10.36,0.04989591985940933,0.011579690501093864,-0.016586434096097946,0.02850341796875,-0.659027099609375,-0.7545318603515625
10.38,0.024084564298391342,-0.014027934521436691,-0.012295814231038094,0.036285400390625,-0.6591033935546875,-0.736602783203125
10.4,-0.019536150619387627,-0.011589543893933296,0.0015214639715850353,0.044219970703125,-0.6585235595703125,-0.7250213623046875
10.42,-0.04619812220335007,-0.008676579222083092,-0.00412390474230051,0.0425567626953125,-0.6568450927734375,-0.727264404296875
10.44,-0.050270359963178635,-0.0021995047573000193,-0.01335681788623333,0.0322418212890625,-0.6597900390625,-0.742919921875
10.46,-0.01816621981561184,0.0079748360440135,-0.004530036821961403,0.0325164794921875,-0.6599578857421875,-0.7605438232421875
10.48,0.026992201805114746,-0.0007145261042751372,0.003156378399580717,0.0389251708984375,-0.65460205078125,-0.7740478515625
10.5,0.04186835512518883,-0.012792760506272316,0.007000918034464121,0.0414581298828125,-0.655609130859375,-0.771240234375
10.52,0.05326562002301216,0.007996940053999424,0.009280583821237087,0.0374755859375,-0.661376953125,-0.7610321044921875
10.54,0.05030231922864914,0.016377374529838562,-0.002386458683758974,0.0369415283203125,-0.65985107421875,-0.7602081298828125
10.56,0.04406093433499336,0.028896363452076912,-0.01507216040045023,0.0265350341796875,-0.6612091064453125,-0.752410888671875
10.58,0.01972789876163006,0.01281832717359066,-0.01679655723273754,0.02923583984375,-0.65911865234375,-0.7399444580078125
10.6,-0.033613353967666626,-0.012377041392028332,-0.003087668912485242,0.04052734375,-0.6603240966796875,-0.72247314453125
10.62,-0.04782504588365555,-0.028972262516617775,0.013174924068152905,0.047027587890625,-0.6556549072265625,-0.7225341796875
10.64,-0.04078977555036545,0.000461259507574141,-0.0003174488083459437,0.0449066162109375,-0.650665283203125,-0.739227294921875
10.66,-0.019655460491776466,0.03309324011206627,-0.007059773895889521,0.0279388427734375,-0.653778076171875,-0.764129638671875
10.68,0.00004926848123432137,0.018605109304189682,0.005714877508580685,0.0321502685546875,-0.654022216796875,-0.7720794677734375
10.7,0.0010921623324975371,-0.015414642170071602,0.015223427675664425,0.044219970703125,-0.6569366455078125,-0.761138916015625
10.72,0.01477335300296545,-0.0029443909879773855,0.013094763271510601,0.0389556884765625,-0.6609649658203125,-0.7497711181640625
10.74,0.029258819296956062,0.004281564150005579,-0.007694405037909746,0.0283203125,-0.65875244140625,-0.7540130615234375
10.76,0.007407582364976406,0.010890730656683445,-0.020662933588027954,0.026214599609375,-0.66058349609375,-0.746917724609375
10.78,-0.032174982130527496,0.023901870474219322,-0.020498350262641907,0.03057861328125,-0.6636810302734375,-0.73846435546875
10.8,-0.03862888365983963,0.017256485298275948,-0.02057052217423916,0.0337677001953125,-0.6621551513671875,-0.737213134765625
10.82,-0.02371917851269245,0.001041295938193798,-0.017853299155831337,0.037078857421875,-0.6607513427734375,-0.7486114501953125
10.84,-0.01064811646938324,0.013433783315122128,-0.010776481591165066,0.0372161865234375,-0.6571807861328125,-0.7561187744140625
10.86,-0.0017025588313117623,0.021756427362561226,0.005376123357564211,0.048370361328125,-0.6553802490234375,-0.7598114013671875
10.88,0.010558634996414185,0.008615326136350632,0.008400674909353256,0.0501556396484375,-0.653350830078125,-0.75262451171875
10.9,0.006846987176686525,-0.0002378202771069482,0.0068033114075660706,0.0417938232421875,-0.65936279296875,-0.754852294921875
10.92,-0.005667473189532757,0.008980179205536842,0.008676312863826752,0.035003662109375,-0.6619720458984375,-0.74847412109375
10.94,-0.0011113371001556516,0.0114958006888628,0.008400408551096916,0.0372772216796875,-0.66204833984375,-0.7484588623046875
10.96,0.012309662997722626,0.012710735201835632,0.003355050226673484,0.03302001953125,-0.657684326171875,-0.754974365234375
10.98,-0.01197090931236744,0.015922240912914276,0.0031041805632412434,0.03497314453125,-0.6591339111328125,-0.7465057373046875
11,-0.037820883095264435,0.009406550787389278,-0.0054482948035001755,0.036224365234375,-0.660797119140625,-0.735626220703125
11.02,-0.04526415094733238,0.013860688544809818,-0.014101171866059303,0.032684326171875,-0.6634979248046875,-0.7352752685546875
11.04,-0.048525191843509674,0.028127508237957954,-0.012732306495308876,0.03167724609375,-0.6586151123046875,-0.744903564453125
11.06,-0.04494963213801384,0.013223127461969852,-0.001746501075103879,0.0407257080078125,-0.6563568115234375,-0.7550811767578125
11.08,-0.025528263300657272,0.0009973538108170033,0.014196512289345264,0.0464630126953125,-0.6522369384765625,-0.76171875
11.1,-0.016384033486247063,-0.01888953521847725,0.02641775831580162,0.046539306640625,-0.6497802734375,-0.7662200927734375
11.12,-0.07217592746019363,-0.03533774986863136,0.01673823408782482,0.0454864501953125,-0.6533355712890625,-0.75506591796875
11.14,-0.11646056920289993,0.002049568807706237,-0.009955694898962975,0.0290374755859375,-0.6633758544921875,-0.73773193359375
11.16,-0.1310456395149231,0.02810487151145935,-0.0284646637737751,0.0177764892578125,-0.663299560546875,-0.748199462890625
11.18,-0.09640856087207794,0.019083678722381592,-0.026800988242030144,0.02239990234375,-0.660003662109375,-0.7555694580078125
11.2,-0.06646397709846497,-0.008204933255910873,-0.01571265049278736,0.0360565185546875,-0.6495819091796875,-0.76531982421875
11.22,-0.08945690840482712,-0.01739124022424221,-0.016276175156235695,0.04248046875,-0.6490478515625,-0.7590484619140625
11.24,-0.1313079595565796,0.020188625901937485,-0.007245395798236132,0.0391082763671875,-0.64898681640625,-0.7506103515625
11.26,-0.15240071713924408,0.0346706286072731,-0.0013203952694311738,0.04156494140625,-0.6470794677734375,-0.7525177001953125
11.28,-0.12225747108459473,0.013187441043555737,-0.0015161376213654876,0.03924560546875,-0.6431884765625,-0.76300048828125
11.3,-0.08377213031053543,-0.03068094700574875,0.0024202808272093534,0.0489501953125,-0.641387939453125,-0.77264404296875
11.32,-0.035600073635578156,-0.043546412140131,0.02245444245636463,0.052276611328125,-0.6365814208984375,-0.772735595703125
11.34,0.01739949733018875,-0.0051923650316894054,0.02436126582324505,0.04736328125,-0.63323974609375,-0.7944183349609375
11.36,0.057318415492773056,0.023621706292033195,0.021494373679161072,0.0353851318359375,-0.6321258544921875,-0.8063201904296875
11.38,0.06332970410585403,-0.0011885687708854675,0.013015666976571083,0.0309295654296875,-0.639739990234375,-0.796417236328125
11.4,0.039212916046381,-0.011514442972838879,0.02250371128320694,0.0348663330078125,-0.644622802734375,-0.7698822021484375
11.42,0.01583489030599594,-0.0017206683987751603,0.01275520958006382,0.036285400390625,-0.646484375,-0.7572784423828125
11.44,0.01769617199897766,0.008476574905216694,-0.012195945717394352,0.024505615234375,-0.6501007080078125,-0.7559051513671875
11.46,0.018916433677077293,-0.0021936458069831133,-0.027967985719442368,0.0229339599609375,-0.64752197265625,-0.759521484375
11.48,0.011871839873492718,-0.022155901417136192,-0.01738591492176056,0.0345001220703125,-0.6411285400390625,-0.757537841796875
11.5,0.005587045568972826,-0.046968307346105576,-0.006054163910448551,0.0454559326171875,-0.635162353515625,-0.7568206787109375
11.52,-0.0004551342281047255,-0.04914810508489609,-0.01570306345820427,0.0417327880859375,-0.63299560546875,-0.760101318359375
11.54,-0.012090750969946384,-0.028252942487597466,-0.033549170941114426,0.03009033203125,-0.6394500732421875,-0.7666778564453125
11.56,-0.01062414888292551,-0.018680477514863014,-0.03128441795706749,0.02581787109375,-0.6407928466796875,-0.768310546875
11.58,0.018871160224080086,-0.07722128182649612,-0.04183053597807884,0.0252532958984375,-0.6384429931640625,-0.76641845703125
11.6,0.0430729016661644,-0.10003312677145004,-0.0590721070766449,0.0174102783203125,-0.64422607421875,-0.7717437744140625
11.62,0.038660045713186264,-0.08286771923303604,-0.07460526376962662,0.0067138671875,-0.64471435546875,-0.772430419921875
11.64,0.020617127418518066,-0.0941544622182846,-0.10144086927175522,0.0025787353515625,-0.6518096923828125,-0.764007568359375
11.66,0.0022650184109807014,-0.09512332081794739,-0.14094939827919006,-0.0052337646484375,-0.6552734375,-0.7532196044921875
11.68,-0.00006178533658385277,-0.09620615839958191,-0.16674929857254028,-0.008575439453125,-0.6551513671875,-0.7561492919921875
11.7,-0.012616725638508797,-0.10494372248649597,-0.16086824238300323,0.0093536376953125,-0.6462554931640625,-0.7544403076171875
11.72,-0.04183772951364517,-0.1305883675813675,-0.1507841795682907,0.0277252197265625,-0.64019775390625,-0.74688720703125
11.74,-0.04210590943694115,-0.12254908680915833,-0.14482775330543518,0.0358428955078125,-0.6378173828125,-0.7451171875
11.76,-0.025362081825733185,-0.1000528335571289,-0.13792698085308075,0.0380096435546875,-0.631927490234375,-0.75970458984375
11.78,-0.03495185822248459,-0.08020509034395218,-0.11084875464439392,0.0460205078125,-0.6260833740234375,-0.7651824951171875
11.8,-0.06795960664749146,-0.07280442863702774,-0.08355455100536346,0.0596160888671875,-0.630279541015625,-0.7507171630859375
11.82,-0.07777468860149384,-0.03899719938635826,-0.06591856479644775,0.0567169189453125,-0.6421356201171875,-0.7530364990234375
11.84,-0.0682767927646637,-0.011855593882501125,-0.046282809227705,0.051605224609375,-0.646759033203125,-0.77227783203125
11.86,-0.05410238355398178,0.011205783113837242,-0.02413489669561386,0.057952880859375,-0.653564453125,-0.781494140625
11.88,-0.024178840219974518,0.03945712745189667,-0.0035201662685722113,0.0603485107421875,-0.6485137939453125,-0.786895751953125
11.9,0.00830613262951374,0.07074474543333054,0.02653147652745247,0.06256103515625,-0.64727783203125,-0.7922210693359375
11.92,0.00965928565710783,0.07807616144418716,0.07320737093687057,0.072967529296875,-0.631683349609375,-0.7845001220703125
11.94,0.006328203249722719,0.06831540912389755,0.12184148281812668,0.078765869140625,-0.6239776611328125,-0.7683868408203125
11.96,-0.000666322885081172,0.059363190084695816,0.14242292940616608,0.075469970703125,-0.622802734375,-0.765594482421875
11.98,-0.01625433750450611,0.07387235760688782,0.14087162911891937,0.057891845703125,-0.6290435791015625,-0.7665252685546875
12,-0.004575843457132578,0.08073585480451584,0.14387941360473633,0.0440521240234375,-0.6307220458984375,-0.7756195068359375
12.02,0.014446583576500416,0.08244320750236511,0.1378478854894638,0.038665771484375,-0.635650634765625,-0.7839813232421875
12.04,0.03245461359620094,0.10393864661455154,0.10626997798681259,0.0283355712890625,-0.6426239013671875,-0.78814697265625
12.06,0.05218783766031265,0.1553131639957428,0.0581653006374836,0.00970458984375,-0.652313232421875,-0.7929840087890625
12.08,0.06809250265359879,0.19232018291950226,0.03099280409514904,0.002838134765625,-0.656585693359375,-0.7923736572265625
12.1,0.058583419770002365,0.20488497614860535,0.03135818988084793,0.023101806640625,-0.6554412841796875,-0.77618408203125
12.12,0.02773202955722809,0.19709709286689758,0.05733998864889145,0.054046630859375,-0.6531982421875,-0.74859619140625
12.14,-0.021084245294332504,0.20041431486606598,0.08645020425319672,0.0760345458984375,-0.6449127197265625,-0.734527587890625
12.16,-0.060740578919649124,0.22789840400218964,0.09766264259815216,0.080963134765625,-0.6416015625,-0.7388458251953125
12.18,-0.06701711565256119,0.23409025371074677,0.1376904845237732,0.0859222412109375,-0.632080078125,-0.760284423828125
12.2,-0.01492195762693882,0.21690382063388824,0.18883410096168518,0.101806640625,-0.61883544921875,-0.783843994140625
12.22,0.03912822902202606,0.1821591556072235,0.2358197122812271,0.1012725830078125,-0.6112518310546875,-0.8031463623046875
12.24,0.04892093688249588,0.1425294578075409,0.27564942836761475,0.0985565185546875,-0.6146697998046875,-0.7955322265625
12.26,0.05180913582444191,0.11745339632034302,0.29590168595314026,0.0849151611328125,-0.619842529296875,-0.78460693359375
12.28,0.07348992675542831,0.08708856254816055,0.2810990512371063,0.0619049072265625,-0.6294403076171875,-0.7873687744140625
12.3,0.11979138106107712,0.09076771885156631,0.23714597523212433,0.0235137939453125,-0.6429901123046875,-0.79327392578125
12.32,0.1467156708240509,0.06961663067340851,0.20667408406734467,0.0076904296875,-0.6577911376953125,-0.7891693115234375
12.34,0.10874325782060623,0.017227722331881523,0.1678268164396286,0.0053253173828125,-0.6781463623046875,-0.7557220458984375
12.36,0.027185548096895218,-0.010116017423570156,0.09625596553087234,-0.0068817138671875,-0.6934814453125,-0.719818115234375
12.38,-0.02213433012366295,0.014147244393825531,0.028868932276964188,-0.032318115234375,-0.6812744140625,-0.7209014892578125
12.4,0.005584116093814373,-0.011118697002530098,0.023555925115942955,-0.0268402099609375,-0.6484375,-0.7469024658203125
12.42,0.06720113754272461,-0.09970821440219879,0.039509858936071396,0.0030364990234375,-0.6115264892578125,-0.7620849609375
12.44,0.08578813821077347,-0.13579857349395752,0.02082565240561962,0.0078582763671875,-0.5981292724609375,-0.7581939697265625
12.46,-0.009829195216298103,-0.06836973875761032,-0.04537467285990715,-0.0202484130859375,-0.6183624267578125,-0.7405548095703125
12.48,-0.10280147939920425,-0.032220255583524704,-0.08400142937898636,-0.0326690673828125,-0.6456451416015625,-0.720794677734375
12.5,-0.10851342976093292,-0.053283460438251495,-0.10391254723072052,-0.010223388671875,-0.6607666015625,-0.723175048828125
12.52,-0.0635821744799614,-0.07138709723949432,-0.11246076226234436,0.007598876953125,-0.6647186279296875,-0.75616455078125
12.54,-0.03516304865479469,-0.06695053726434708,-0.09539895504713058,0.0302886962890625,-0.6610107421875,-0.774383544921875
12.56,-0.017733989283442497,-0.05133615806698799,-0.09125987440347672,0.0432891845703125,-0.6616973876953125,-0.7779998779296875
12.58,0.03470258787274361,-0.02220437116920948,-0.09122978150844574,0.0326385498046875,-0.6588592529296875,-0.7876434326171875
12.6,0.0946870967745781,-0.020113524049520493,-0.06915004551410675,0.031219482421875,-0.641326904296875,-0.8015289306640625
12.62,0.07558796554803848,-0.011355984956026077,-0.02804308570921421,0.0465240478515625,-0.632568359375,-0.784027099609375
12.64,-0.001038632821291685,0.02347523160278797,-0.04994545504450798,0.039306640625,-0.64801025390625,-0.7465057373046875
12.66,-0.01625407114624977,0.039629701524972916,-0.05062802508473396,0.020904541015625,-0.6482391357421875,-0.7320556640625
12.68,0.001791242160834372,-0.022131135687232018,0.010440923273563385,0.0530853271484375,-0.62689208984375,-0.7414093017578125
12.7,-0.03530446067452431,-0.03303837776184082,0.06220478564500809,0.0785064697265625,-0.62353515625,-0.7359161376953125
12.72,-0.08720387518405914,0.0070158313028514385,0.01618962176144123,0.044830322265625,-0.64154052734375,-0.7314605712890625
12.74,-0.11537373065948486,0.02556581422686577,-0.03009345382452011,0.0074920654296875,-0.6602325439453125,-0.7386627197265625
12.76,-0.11663447320461273,0.03268098086118698,-0.020260529592633247,0.0212249755859375,-0.654815673828125,-0.7585906982421875
12.78,-0.067375048995018,0.05113615468144417,-0.004893824923783541,0.0400238037109375,-0.6463623046875,-0.781524658203125
12.8,0.019276758655905724,0.03347087278962135,-0.005823001731187105,0.03985595703125,-0.6353759765625,-0.810943603515625
12.82,0.045526206493377686,0.01785968989133835,-0.002335592173039913,0.045501708984375,-0.6357269287109375,-0.8108062744140625
12.84,0.03411669284105301,0.04885435849428177,-0.009937318973243237,0.0509796142578125,-0.641204833984375,-0.7860870361328125
12.86,0.032285768538713455,0.059006862342357635,-0.02839302457869053,0.0416717529296875,-0.64508056640625,-0.7745513916015625
12.88,0.037097565829753876,0.01961790956556797,-0.033179525285959244,0.042144775390625,-0.644989013671875,-0.76947021484375
12.9,0.022459236904978752,0.006686664652079344,-0.02641110122203827,0.0517120361328125,-0.6437530517578125,-0.76092529296875
12.92,0.01098447386175394,0.03015097789466381,-0.02858850173652172,0.05242919921875,-0.6388397216796875,-0.7571258544921875
12.94,0.011758388951420784,0.0471603199839592,-0.05182218551635742,0.04217529296875,-0.6409149169921875,-0.763458251953125
12.96,0.007839547470211983,0.023543410003185272,-0.05203869938850403,0.036163330078125,-0.64569091796875,-0.764404296875
12.98,-0.01660054735839367,-0.004058923572301865,-0.025742648169398308,0.0504608154296875,-0.647247314453125,-0.750732421875
13,-0.024652082473039627,-0.02967453934252262,0.0041095237247645855,0.0634307861328125,-0.63421630859375,-0.748199462890625
13.02,-0.002335858531296253,-0.04109497368335724,0.03551352024078369,0.064300537109375,-0.6236419677734375,-0.7574005126953125
13.04,0.004254133440554142,-0.028562135994434357,0.043646812438964844,0.05645751953125,-0.626007080078125,-0.77349853515625
13.06,-0.014779478311538696,-0.008508533239364624,-0.0068296766839921474,0.0319061279296875,-0.6570892333984375,-0.7806854248046875
13.08,-0.024216389283537865,0.009833189658820629,-0.03870052471756935,0.0128326416015625,-0.667205810546875,-0.77166748046875
13.1,0.029927272349596024,-0.022237926721572876,0.0046325684525072575,0.0396270751953125,-0.6502227783203125,-0.77874755859375
13.12,0.09023348987102509,-0.04819975420832634,0.041064877063035965,0.0687103271484375,-0.628173828125,-0.7813262939453125
13.14,0.07490593194961548,0.0273906122893095,-0.00395825644955039,0.04644775390625,-0.63812255859375,-0.7746429443359375
13.16,0.019575033336877823,0.047620780766010284,-0.0421927273273468,0.0099945068359375,-0.658538818359375,-0.752227783203125
13.18,-0.03803872689604759,-0.008066182024776936,-0.014882010407745838,0.033172607421875,-0.6576385498046875,-0.7181396484375
13.2,-0.07354239374399185,-0.018689798191189766,0.013626595959067345,0.058502197265625,-0.651519775390625,-0.714202880859375
13.22,-0.06281864643096924,0.024504810571670532,0.022577747702598572,0.0480804443359375,-0.64263916015625,-0.738494873046875
13.24,-0.051002465188503265,0.011277422308921814,0.03256459906697273,0.0352020263671875,-0.6388702392578125,-0.7647705078125
13.26,-0.047445546835660934,-0.00583658367395401,0.03867495805025101,0.0394744873046875,-0.643524169921875,-0.7657928466796875
13.28,-0.02701696939766407,0.01176451425999403,0.037946850061416626,0.033538818359375,-0.6466064453125,-0.7747650146484375
13.3,-0.01522742211818695,0.000931307440623641,0.02845161408185959,0.030059814453125,-0.649017333984375,-0.7814178466796875
13.32,-0.004670385736972094,-0.01443886011838913,0.0314660482108593,0.0343017578125,-0.65203857421875,-0.7715301513671875
13.34,0.014086524024605751,0.015921175479888916,0.018810439854860306,0.0371856689453125,-0.645050048828125,-0.7707366943359375
13.36,0.020447485148906708,0.017476994544267654,0.011655590496957302,0.029266357421875,-0.6405792236328125,-0.7741851806640625
13.38,-0.005320196971297264,-0.005228584166616201,0.007848069071769714,0.03729248046875,-0.6402740478515625,-0.7599945068359375
13.4,-0.03427834436297417,-0.009269664995372295,0.004622715059667826,0.0382537841796875,-0.643524169921875,-0.7466888427734375
13.42,-0.05224749073386192,0.007493602577596903,-0.012292352505028248,0.032867431640625,-0.6387939453125,-0.7548828125
13.44,-0.03689303621649742,0.01519706193357706,-0.016398681327700615,0.0269012451171875,-0.637481689453125,-0.77301025390625
13.46,-0.010044910944998264,-0.0005768407136201859,0.0007624630234204233,0.0343017578125,-0.627655029296875,-0.7866973876953125
13.48,0.019660519436001778,-0.01601438596844673,0.016929449513554573,0.0467376708984375,-0.6260223388671875,-0.7929840087890625
13.5,0.044741105288267136,-0.017099624499678612,0.017977401614189148,0.0412750244140625,-0.633148193359375,-0.7951507568359375
13.52,0.06187988072633743,0.012170912697911263,0.00618066405877471,0.0308074951171875,-0.6460418701171875,-0.791748046875
13.54,0.07725590467453003,0.012942430563271046,-0.008382033556699753,0.0214385986328125,-0.65704345703125,-0.7856597900390625
13.56,0.06509272009134293,0.007651527877897024,-0.016560601070523262,0.0212860107421875,-0.6637725830078125,-0.7704315185546875
13.58,0.04253068193793297,0.0005036037764512002,-0.023621972650289536,0.0236053466796875,-0.6580352783203125,-0.7591400146484375
13.6,0.04420660808682442,-0.03527596592903137,-0.008292018435895443,0.0336151123046875,-0.6350555419921875,-0.75152587890625
13.62,0.03416143357753754,-0.03708584979176521,0.004500209353864193,0.0433197021484375,-0.618743896484375,-0.747222900390625
13.64,0.006436061579734087,0.0049281795509159565,-0.011479022912681103,0.034088134765625,-0.61395263671875,-0.745849609375
13.66,-0.04535762593150139,0.038186799734830856,-0.04651210829615593,0.0178985595703125,-0.6336669921875,-0.737060546875
13.68,-0.08856341987848282,0.028969332575798035,-0.057013217359781265,0.0224456787109375,-0.6508636474609375,-0.72607421875
13.7,-0.07154315710067749,0.015372831374406815,-0.01768605224788189,0.0506439208984375,-0.652984619140625,-0.739410400390625
13.72,-0.04084250330924988,-0.002787797013297677,0.021201159805059433,0.068603515625,-0.647216796875,-0.7647247314453125
13.74,-0.026997262611985207,-0.007783886976540089,0.004003529902547598,0.063232421875,-0.6589813232421875,-0.7777557373046875
13.76,-0.025796443223953247,0.04792012274265289,-0.0517319031059742,0.032470703125,-0.6707000732421875,-0.7826385498046875
13.78,0.03542430326342583,0.04050508141517639,-0.045769352465867996,0.0194549560546875,-0.6519012451171875,-0.792022705078125
13.8,0.11388395726680756,-0.004717523697763681,-0.017054617404937744,0.0485992431640625,-0.6282806396484375,-0.79803466796875
13.82,0.09794680029153824,-0.0018927085911855102,-0.01643383502960205,0.0477142333984375,-0.6260223388671875,-0.780853271484375
13.84,0.0014623417519032955,-0.0008780442294664681,-0.04326944425702095,0.0242767333984375,-0.6421356201171875,-0.73876953125
13.86,-0.04610544443130493,-0.014036723412573338,-0.044849496334791183,0.0193634033203125,-0.6585693359375,-0.712615966796875
13.88,-0.060989316552877426,-0.014817561954259872,-0.02100994437932968,0.0383758544921875,-0.6595611572265625,-0.7279052734375
13.9,-0.08174066990613937,-0.012819391675293446,-0.020485833287239075,0.0382232666015625,-0.658050537109375,-0.7415771484375
13.92,-0.07785165309906006,-0.03001941740512848,-0.04314906895160675,0.026153564453125,-0.6606597900390625,-0.7500762939453125
13.94,-0.05782974511384964,-0.03804538771510124,-0.03975806385278702,0.0303192138671875,-0.644500732421875,-0.77337646484375
13.96,-0.02593386173248291,-0.01938754692673683,-0.020795293152332306,0.0491180419921875,-0.6250152587890625,-0.7906646728515625
13.98,0.015064969658851624,-0.027364246547222137,-0.005601959303021431,0.0555572509765625,-0.611358642578125,-0.8071136474609375
14,0.03266100585460663,-0.025070199742913246,-0.006847519893199205,0.0567169189453125,-0.6118621826171875,-0.798065185546875
14.02,0.023023560643196106,0.006336991675198078,-0.006254167295992374,0.056884765625,-0.6284332275390625,-0.7881622314453125
14.04,0.009427856653928757,0.01130831427872181,-0.0011052117915824056,0.0562744140625,-0.63592529296875,-0.7727203369140625
14.06,0.015163772739470005,0.0024224112275987864,0.00609437795355916,0.0596466064453125,-0.648712158203125,-0.77117919921875
14.08,0.03280987963080406,-0.0017361147329211235,0.010237989947199821,0.05645751953125,-0.6459197998046875,-0.77587890625
14.1,0.04315652698278427,-0.015781359747052193,0.007339139468967915,0.046051025390625,-0.6382293701171875,-0.781402587890625
14.12,0.05646354332566261,-0.0317014716565609,0.028081169351935387,0.0403900146484375,-0.630401611328125,-0.776397705078125
14.14,0.06114378198981285,-0.038788143545389175,0.021589182317256927,0.0347747802734375,-0.6327667236328125,-0.775360107421875
14.16,0.05096597969532013,-0.012975719757378101,-0.023094400763511658,0.013580322265625,-0.65447998046875,-0.7718658447265625
14.18,0.05866730958223343,0.006146043073385954,-0.051555335521698,0.0002593994140625,-0.666351318359375,-0.765533447265625
14.2,0.06961476057767868,-0.023078421130776405,-0.04721518233418465,0.01763916015625,-0.66046142578125,-0.76373291015625
14.22,0.029442043974995613,-0.05371702462434769,-0.023239009082317352,0.044281005859375,-0.6465911865234375,-0.74041748046875
14.24,-0.00791251752525568,-0.05007142201066017,-0.03337819501757622,0.04595947265625,-0.64202880859375,-0.7209930419921875
14.26,-0.012191152200102806,-0.009787916205823421,-0.0641062781214714,0.027923583984375,-0.642120361328125,-0.7281951904296875
14.28,-0.03718918189406395,0.018024273216724396,-0.0782543271780014,0.025787353515625,-0.6465911865234375,-0.7396087646484375
14.3,-0.09274884313344955,0.018028268590569496,-0.06470389664173126,0.0369873046875,-0.6552276611328125,-0.728759765625
14.32,-0.12469346076250076,-0.016631707549095154,-0.00022503710351884365,0.0631866455078125,-0.6529693603515625,-0.72357177734375
14.34,-0.11913277953863144,-0.031022097915410995,0.0426742248237133,0.084808349609375,-0.6532440185546875,-0.7472686767578125
14.36,-0.0843883827328682,0.015536082908511162,-0.00487145408987999,0.061798095703125,-0.6648101806640625,-0.7844390869140625
14.38,0.006770820822566748,0.015142734162509441,-0.001201884588226676,0.0376434326171875,-0.6516876220703125,-0.8178863525390625
14.4,0.10700314491987228,-0.0451754666864872,0.06910290569067001,0.0694732666015625,-0.62689208984375,-0.834136962890625
14.42,0.13960103690624237,-0.02118304930627346,0.11215077340602875,0.08538818359375,-0.6168060302734375,-0.822113037109375
14.44,0.1180424839258194,0.03452974930405617,0.04211150109767914,0.036102294921875,-0.636322021484375,-0.796417236328125
14.46,0.07599463313817978,0.024841433390975,-0.023082949221134186,-0.0125732421875,-0.659088134765625,-0.7642822265625
14.48,0.02267282083630562,-0.005152684170752764,0.00878230668604374,0.011199951171875,-0.64898681640625,-0.73492431640625
14.5,0.0012514194240793586,-0.004758003633469343,0.025226527824997902,0.0393829345703125,-0.62921142578125,-0.7256011962890625
14.52,0.0009523464250378311,-0.007226753979921341,0.015987223014235497,0.0256195068359375,-0.62115478515625,-0.744964599609375
14.54,-0.03609728440642357,-0.014973889105021954,-0.00490234699100256,0.016265869140625,-0.6220855712890625,-0.7498779296875
14.56,-0.08232443034648895,-0.0054429685696959496,-0.022155901417136192,0.014373779296875,-0.6386871337890625,-0.744598388671875
14.58,-0.07427156716585159,-0.009966880083084106,-0.023252857849001884,0.0228424072265625,-0.6406707763671875,-0.757049560546875
14.6,-0.01695954240858555,-0.011665178462862968,-0.019160645082592964,0.0391693115234375,-0.64056396484375,-0.7866058349609375
14.62,0.046118758618831635,-0.0038991342298686504,-0.02184990420937538,0.0414276123046875,-0.6390228271484375,-0.8080596923828125
14.64,0.09290437400341034,0.005218996666371822,-0.01188302505761385,0.04718017578125,-0.6455078125,-0.807525634765625
14.66,0.09893297404050827,-0.020836573094129562,0.012359730899333954,0.049407958984375,-0.6484832763671875,-0.784942626953125
14.68,0.08327864110469818,-0.02497512474656105,-0.0014583469601348042,0.0443115234375,-0.670867919921875,-0.760223388671875
14.7,0.0550113208591938,0.058107778429985046,-0.07543430477380753,0.007415771484375,-0.6977691650390625,-0.7480621337890625
14.72,0.06907147914171219,0.07437410205602646,-0.10035429894924164,-0.00836181640625,-0.685150146484375,-0.7447052001953125
14.74,0.07771210372447968,-0.03676334023475647,-0.038367096334695816,0.04254150390625,-0.6456451416015625,-0.7329559326171875
14.76,-0.00012650014832615852,-0.06666211783885956,0.031150728464126587,0.0898895263671875,-0.6194610595703125,-0.701507568359375
14.78,-0.11566001921892166,-0.0240001417696476,-0.008654207922518253,0.06292724609375,-0.629486083984375,-0.6867523193359375
14.8,-0.16985614597797394,0.008854477666318417,-0.036005936563014984,0.0176849365234375,-0.6435089111328125,-0.698394775390625
14.82,-0.18922744691371918,0.02286669984459877,-0.009267534129321575,0.035675048828125,-0.6441650390625,-0.733612060546875
14.84,-0.14718332886695862,0.02339959889650345,0.022000640630722046,0.052764892578125,-0.637939453125,-0.7751617431640625
14.86,-0.02425713650882244,-0.02797890454530716,0.04404229298233986,0.0556182861328125,-0.6352081298828125,-0.8150482177734375
14.88,0.0898132398724556,-0.009828662499785423,0.035472240298986435,0.0521240234375,-0.636566162109375,-0.845550537109375
14.9,0.10773338377475739,0.04214132949709892,0.017109477892518044,0.03411865234375,-0.642669677734375,-0.836029052734375
14.92,0.07474108040332794,0.02298600971698761,-0.00780519237741828,0.025543212890625,-0.6548004150390625,-0.791229248046875
14.94,0.056467004120349884,0.012053467333316803,-0.05229276418685913,0.02532958984375,-0.671905517578125,-0.758056640625
14.96,0.03892822563648224,0.036183036863803864,-0.06096694618463516,0.0247802734375,-0.65740966796875,-0.759796142578125
14.98,0.04409502446651459,0.012827381491661072,-0.017250625416636467,0.0445098876953125,-0.6309967041015625,-0.7569732666015625
15,0.03242771327495575,-0.024602549150586128,0.023273630067706108,0.0665283203125,-0.6143798828125,-0.7491455078125
15.02,-0.01601225510239601,0.009882990270853043,-0.003183542750775814,0.046356201171875,-0.6211700439453125,-0.7441558837890625
15.04,-0.035829368978738785,0.029642846435308456,-0.026916302740573883,0.011474609375,-0.6323699951171875,-0.7428741455078125
15.06,-0.03796522691845894,-0.002508165081962943,-0.0016940367640927434,0.024322509765625,-0.6312103271484375,-0.749420166015625
15.08,-0.05000590905547142,-0.010550911538302898,0.00941960047930479,0.043609619140625,-0.63409423828125,-0.7520751953125
15.1,-0.05277533084154129,-0.007202252745628357,0.0037526602391153574,0.03643798828125,-0.6400146484375,-0.7619171142578125
15.12,-0.04050641506910324,-0.023318639025092125,0.010898187756538391,0.0374908447265625,-0.6455078125,-0.7718048095703125
15.14,-0.014165353961288929,-0.022490128874778748,0.0011725898366421461,0.042877197265625,-0.654876708984375,-0.7830047607421875
15.16,0.02967294119298458,0.02527712658047676,-0.039807334542274475,0.027984619140625,-0.6627655029296875,-0.7967376708984375
15.18,0.07782448828220367,0.03020291030406952,-0.049250904470682144,0.0262908935546875,-0.6625213623046875,-0.8043975830078125
15.2,0.11459662020206451,0.007938883267343044,-0.039318911731243134,0.043914794921875,-0.6568145751953125,-0.7930755615234375
15.22,0.11329486966133118,0.0009531453251838684,-0.024683242663741112,0.056610107421875,-0.6546630859375,-0.772705078125
15.24,0.09628499299287796,0.009159144014120102,0.0024165522772818804,0.056884765625,-0.6447906494140625,-0.7496185302734375
15.26,0.055626243352890015,0.00042024682625196874,0.0204597357660532,0.060791015625,-0.637908935546875,-0.73138427734375
15.28,-0.015574964694678783,0.03436196967959404,-0.02358175814151764,0.0460357666015625,-0.6531829833984375,-0.71588134765625
15.3,-0.06670792400836945,0.04605484381318092,-0.04312749579548836,0.01947021484375,-0.6592864990234375,-0.71099853515625
15.32,-0.03484879434108734,0.009010273031890392,0.005145493429154158,0.047943115234375,-0.6412811279296875,-0.72406005859375
15.34,-0.032759811729192734,-0.014512630179524422,0.052380915731191635,0.076171875,-0.6284637451171875,-0.745574951171875
15.36,-0.08425256609916687,0.0326109416782856,0.019240006804466248,0.0528411865234375,-0.647308349609375,-0.73736572265625
15.38,-0.11462884396314621,0.014007428660988808,-0.01507242675870657,0.0154876708984375,-0.6598358154296875,-0.7337646484375
15.4,-0.13537700474262238,-0.012647618539631367,0.002080195117741823,0.0320587158203125,-0.657073974609375,-0.7433929443359375
15.42,-0.1274825930595398,0.013520868495106697,0.000731836655177176,0.040985107421875,-0.6486358642578125,-0.7592010498046875
15.44,-0.03215181082487106,0.013705159537494183,-0.0030338731594383717,0.0287933349609375,-0.6432037353515625,-0.80029296875
15.46,0.03702805936336517,-0.0010021475609391928,-0.0032647692132741213,0.0323333740234375,-0.637359619140625,-0.820587158203125
15.48,0.02227095142006874,0.01685594581067562,0.004306863993406296,0.044891357421875,-0.6412506103515625,-0.802490234375
15.5,-0.018727349117398262,0.013282516039907932,0.00595429539680481,0.052276611328125,-0.6416778564453125,-0.76910400390625
15.52,-0.009037703275680542,-0.0001531317684566602,0.0033923345617949963,0.0570068359375,-0.64239501953125,-0.759063720703125
15.54,0.01191098801791668,0.0029558425303548574,0.005637113004922867,0.0545806884765625,-0.636199951171875,-0.7776336669921875
15.56,0.0166785791516304,0.013597301207482815,0.02742896042764187,0.055267333984375,-0.6328125,-0.78314208984375
15.58,0.02503477968275547,-0.002650644164532423,0.03570127114653587,0.050872802734375,-0.6274261474609375,-0.7791748046875
15.6,0.028801554813981056,-0.009681123308837414,0.03592098131775856,0.046295166015625,-0.631378173828125,-0.77459716796875
15.62,0.01943468488752842,0.009608152322471142,0.019543873146176338,0.0311737060546875,-0.634490966796875,-0.7715606689453125
15.64,0.012998889200389385,0.0175640806555748,0.008884837850928307,0.026397705078125,-0.6381988525390625,-0.7639617919921875
15.66,0.004231496714055538,0.003975300583988428,0.0009145294898189604,0.0281524658203125,-0.639312744140625,-0.7621612548828125
15.68,-0.01101643219590187,0.00023622238950338215,0.006855775602161884,0.0378570556640625,-0.6428375244140625,-0.7552947998046875
15.7,-0.010366620495915413,0.0013046825770288706,0.004467452876269817,0.044158935546875,-0.6435089111328125,-0.759521484375
15.72,0.003090864745900035,-0.01619468256831169,0.0024618261959403753,0.0414276123046875,-0.6440582275390625,-0.76434326171875
15.74,0.02039209008216858,-0.014755244366824627,0.026368755847215652,0.045684814453125,-0.642181396484375,-0.7696685791015625
15.76,0.03738918527960777,-0.0038658445701003075,0.014217818155884743,0.0426177978515625,-0.6609039306640625,-0.7764892578125
15.78,0.032214660197496414,0.031005054712295532,-0.05830298736691475,0.013092041015625,-0.6853485107421875,-0.7738189697265625
15.8,0.04289819672703743,0.03698677942156792,-0.06564239412546158,0.00567626953125,-0.679443359375,-0.766326904296875
15.82,0.06517048180103302,-0.037276264280080795,0.003823766717687249,0.054412841796875,-0.6391448974609375,-0.757598876953125
15.84,0.03429698571562767,-0.050519634038209915,0.049072738736867905,0.082855224609375,-0.615936279296875,-0.7415618896484375
15.86,-0.02317056618630886,0.019815249368548393,-0.017433052882552147,0.04150390625,-0.6306610107421875,-0.7321929931640625
15.88,-0.06293342262506485,0.03434572368860245,-0.055936768651008606,-0.0013427734375,-0.6478424072265625,-0.7335052490234375
15.9,-0.10582709312438965,-0.011472098529338837,-0.028255073353648186,0.0276947021484375,-0.65020751953125,-0.7321319580078125
15.92,-0.11898311227560043,-0.018973957747220993,0.004991828929632902,0.0605926513671875,-0.6436309814453125,-0.738037109375
15.94,-0.06150384247303009,-0.027833761647343636,0.013343235477805138,0.054718017578125,-0.6347503662109375,-0.77093505859375
15.96,0.006667756475508213,-0.03807361423969269,0.0133275231346488,0.0440826416015625,-0.6376953125,-0.8043365478515625
15.98,0.03564481437206268,-0.010180732235312462,-0.013786918483674526,0.033111572265625,-0.6432342529296875,-0.812103271484375
16,0.0654117614030838,-0.0017044231062754989,-0.04563299939036369,0.018463134765625,-0.6511688232421875,-0.8040618896484375
16.02,0.09071392565965652,-0.02545982040464878,-0.07086005806922913,0.015655517578125,-0.6505584716796875,-0.7949066162109375
16.04,0.08716153353452682,-0.016503876075148582,-0.07307474315166473,0.0201263427734375,-0.644073486328125,-0.781646728515625
16.06,0.058281946927309036,-0.014977351762354374,-0.08099444955587387,0.02752685546875,-0.632904052734375,-0.7600555419921875
16.08,0.021282386034727097,-0.03286420553922653,-0.09819979965686798,0.0267791748046875,-0.6304779052734375,-0.7379608154296875
16.1,-0.004535895772278309,-0.04133545607328415,-0.10282678157091141,0.02813720703125,-0.6288299560546875,-0.7281951904296875
16.12,-0.027892617508769035,-0.05392395332455635,-0.0693492442369461,0.0366363525390625,-0.624969482421875,-0.7283477783203125
16.14,-0.0748864933848381,-0.06305193901062012,-0.04704181104898453,0.0471038818359375,-0.63568115234375,-0.7330322265625
16.16,-0.1090090423822403,-0.011493937112390995,-0.10934273898601532,0.029876708984375,-0.6723785400390625,-0.74615478515625
16.18,-0.08689628541469574,0.023557256907224655,-0.1449393481016159,0.005645751953125,-0.6781768798828125,-0.766693115234375
16.2,0.019218435510993004,-0.024812139570713043,-0.0564238615334034,0.048980712890625,-0.6425628662109375,-0.792816162109375
16.22,0.09087717533111572,-0.06827599555253983,0.028360001742839813,0.10150146484375,-0.6047821044921875,-0.7977294921875
16.24,0.05140300467610359,0.0016828514635562897,0.0006876281695440412,0.0794677734375,-0.6272735595703125,-0.7737579345703125
16.26,-0.0575767420232296,0.054017163813114166,-0.07613178342580795,0.0228424072265625,-0.6712188720703125,-0.7377471923828125
16.28,-0.12678644061088562,0.04736272245645523,-0.05760284140706062,0.0299224853515625,-0.6827850341796875,-0.7162322998046875
16.3,-0.13197560608386993,0.047978710383176804,0.015482819639146328,0.0780487060546875,-0.6573944091796875,-0.738128662109375
16.32,-0.06974925100803375,0.038186002522706985,0.06647729128599167,0.093109130859375,-0.627655029296875,-0.777557373046875
16.34,0.0022442457266151905,0.03756175562739372,0.09827490150928497,0.0849151611328125,-0.6098480224609375,-0.8072357177734375
16.36,0.026743730530142784,0.06373503804206848,0.1162581667304039,0.0806121826171875,-0.613311767578125,-0.81182861328125
16.38,0.041799645870923996,0.0929320678114891,0.10690327733755112,0.0674591064453125,-0.624786376953125,-0.801239013671875
16.4,0.04799681901931763,0.0958586186170578,0.09146067500114441,0.0624847412109375,-0.6378021240234375,-0.788421630859375
16.42,0.03531191870570183,0.09700271487236023,0.10061422735452652,0.06597900390625,-0.6405792236328125,-0.773406982421875
16.44,0.011766111478209496,0.08576257526874542,0.10265394300222397,0.0679779052734375,-0.6391448974609375,-0.7621917724609375
16.46,0.0037976677995175123,0.08798445016145706,0.0721687376499176,0.054840087890625,-0.647552490234375,-0.7597808837890625
16.48,-0.0019526296528056264,0.1230284571647644,0.021768411621451378,0.035247802734375,-0.652374267578125,-0.7665557861328125
16.5,-0.0008231831016018987,0.12231206148862839,0.006228601094335318,0.02984619140625,-0.6528472900390625,-0.7742462158203125
16.52,0.029575468972325325,0.08200192451477051,0.022608373314142227,0.050201416015625,-0.639373779296875,-0.771209716796875
16.54,0.05176359415054321,0.05656314268708229,0.034867703914642334,0.068145751953125,-0.62738037109375,-0.77227783203125
16.56,0.03461496904492378,0.03400297462940216,0.05090552568435669,0.0667877197265625,-0.622528076171875,-0.76556396484375
16.58,0.016681509092450142,-0.0009139968897216022,0.0960109531879425,0.0731353759765625,-0.6246185302734375,-0.752166748046875
16.6,0.015078818425536156,-0.014595454558730125,0.07224836200475693,0.06488037109375,-0.654388427734375,-0.7584228515625
16.62,0.0009038768475875258,0.014392254874110222,-0.01073999609798193,0.020050048828125,-0.68438720703125,-0.7749176025390625
16.64,0.024455541744828224,0.02833390235900879,-0.04596749320626259,0.002960205078125,-0.6790008544921875,-0.778289794921875
16.66,0.11819241940975189,-0.06440296024084091,0.008126902393996716,0.0373687744140625,-0.6412353515625,-0.78741455078125
16.68,0.1427110731601715,-0.14300322532653809,0.0582561157643795,0.0712432861328125,-0.610107421875,-0.7758331298828125
16.7,0.06114457920193672,-0.09806185215711594,0.0005371595616452396,0.042236328125,-0.62811279296875,-0.7381134033203125
16.72,-0.027113376185297966,-0.03449033200740814,-0.0640287846326828,-0.011505126953125,-0.653411865234375,-0.7198028564453125
16.74,-0.08656737953424454,-0.057921890169382095,-0.06555397808551788,-0.003082275390625,-0.6559295654296875,-0.714324951171875
16.76,-0.1210758239030838,-0.09838569164276123,-0.02641935646533966,0.0385894775390625,-0.641876220703125,-0.7198638916015625
16.78,-0.09474488347768784,-0.10419218242168427,0.01477495115250349,0.055267333984375,-0.62506103515625,-0.7477569580078125
16.8,-0.03135046735405922,-0.10049890726804733,0.020194483920931816,0.046966552734375,-0.62127685546875,-0.7905731201171875
16.82,0.0027134947013109922,-0.0737898051738739,-0.006795587949454784,0.0320587158203125,-0.6346282958984375,-0.8037261962890625
16.84,0.022044848650693893,-0.045815158635377884,-0.029460154473781586,0.02178955078125,-0.646728515625,-0.7976531982421875
16.86,0.03885365650057793,-0.048099618405103683,-0.023300262168049812,0.0326995849609375,-0.6521148681640625,-0.78778076171875
16.88,0.03874899446964264,-0.05062855780124664,-0.011973039247095585,0.0474395751953125,-0.6468963623046875,-0.7794189453125
16.9,0.03831729665398598,-0.020781178027391434,-0.010554106906056404,0.0476226806640625,-0.64703369140625,-0.7666473388671875
16.92,0.05113322660326958,-0.01733344979584217,-0.01744184084236622,0.038848876953125,-0.642364501953125,-0.76715087890625
16.94,0.038970835506916046,-0.03019625134766102,-0.017731592059135437,0.0364227294921875,-0.6402587890625,-0.7498321533203125
16.96,-0.0013110742438584566,-0.019090604037046432,0.0018093516118824482,0.036285400390625,-0.6418609619140625,-0.731964111328125
16.98,-0.048356615006923676,0.010427607223391533,-0.015792012214660645,0.031951904296875,-0.6524658203125,-0.729949951171875
17,-0.07945088297128677,0.061697717756032944,-0.09136532992124557,0.0076751708984375,-0.6825408935546875,-0.739593505859375
17.02,-0.06658115983009338,0.06422293186187744,-0.07410964369773865,0.00921630859375,-0.6675567626953125,-0.7510223388671875
17.04,-0.016106264665722847,-0.009197759442031384,0.025979934260249138,0.0738067626953125,-0.62890625,-0.7632598876953125
17.06,0.004489823244512081,-0.002133192028850317,0.07493336498737335,0.0968475341796875,-0.6183929443359375,-0.7746429443359375
17.08,-0.025910159572958946,0.08589067310094833,0.01798406057059765,0.05364990234375,-0.6448974609375,-0.778289794921875
17.1,-0.03447089344263077,0.13333329558372498,-0.01731880195438862,0.008453369140625,-0.6688995361328125,-0.7736663818359375
17.12,-0.007955128327012062,0.0966101661324501,0.0349462665617466,0.0422821044921875,-0.65570068359375,-0.7765655517578125
17.14,0.024479510262608528,0.060375459492206573,0.08997250348329544,0.0815582275390625,-0.6376495361328125,-0.7793426513671875
17.16,0.04766179621219635,0.06233714520931244,0.10901863127946854,0.076629638671875,-0.6250152587890625,-0.7790679931640625
17.18,0.07347661256790161,0.0966610312461853,0.0874057486653328,0.051849365234375,-0.6287384033203125,-0.7833709716796875
17.2,0.0329933688044548,0.11746590584516525,0.058692339807748795,0.032958984375,-0.6373291015625,-0.769317626953125
17.22,-0.04869589954614639,0.1209125742316246,0.05527923256158829,0.033905029296875,-0.6478271484375,-0.73980712890625
17.24,-0.09325937181711197,0.10679995268583298,0.06567035615444183,0.04669189453125,-0.643524169921875,-0.7237548828125
17.26,-0.06993141025304794,0.09393421560525894,0.08375322073698044,0.057403564453125,-0.6313629150390625,-0.750518798828125
17.28,-0.03656866401433945,0.09055440127849579,0.08814503997564316,0.0571441650390625,-0.6251678466796875,-0.77850341796875
17.3,-0.0028248149901628494,0.0876598134636879,0.08690773695707321,0.05462646484375,-0.6297149658203125,-0.7921905517578125
17.32,0.011143997311592102,0.09492411464452744,0.07762821763753891,0.0516815185546875,-0.6386566162109375,-0.7954864501953125
17.34,0.015744607895612717,0.11066552996635437,0.06500855833292007,0.049041748046875,-0.649383544921875,-0.7858123779296875
17.36,0.03676866739988327,0.10036495327949524,0.05826170742511749,0.051239013671875,-0.6538543701171875,-0.78173828125
17.38,0.07552405446767807,0.11122559010982513,0.057859838008880615,0.0541839599609375,-0.652496337890625,-0.7825469970703125
17.4,0.06583840399980545,0.08948487788438797,0.08319688588380814,0.065765380859375,-0.643096923828125,-0.77752685546875
17.42,0.018039720132946968,0.06518220156431198,0.08109138906002045,0.073577880859375,-0.6529693603515625,-0.7490386962890625
17.44,-0.0024349282030016184,0.0571807324886322,0.061708904802799225,0.0580902099609375,-0.6564483642578125,-0.7408447265625
17.46,0.01703091524541378,0.04426999390125275,0.08943028002977371,0.0594024658203125,-0.6377410888671875,-0.7546539306640625
17.48,0.03705655410885811,0.01067874301224947,0.13884177803993225,0.0779571533203125,-0.6173095703125,-0.7674560546875
17.5,0.032155804336071014,0.02805107645690441,0.12703384459018707,0.0610809326171875,-0.6282958984375,-0.768096923828125
17.52,0.05287200212478638,0.05722440779209137,0.06895669549703598,0.01708984375,-0.6448974609375,-0.774688720703125
17.54,0.057680871337652206,0.004418184049427509,0.06279387325048447,0.0060577392578125,-0.649658203125,-0.7740020751953125
17.56,0.02900075912475586,-0.029352029785513878,0.06860915571451187,0.026458740234375,-0.6527099609375,-0.7489166259765625
17.58,0.015329421497881413,0.002377670258283615,0.03837934508919716,0.0201568603515625,-0.64996337890625,-0.7449951171875
17.6,0.013640977442264557,0.01660267822444439,-0.002921221312135458,-0.0004730224609375,-0.648651123046875,-0.7557525634765625
17.62,0.001817607437260449,0.014455637894570827,-0.020664531737565994,0.0045928955078125,-0.6502838134765625,-0.7542724609375
17.64,-0.03218083828687668,0.007523962762206793,-0.020622720941901207,0.0261077880859375,-0.646820068359375,-0.7476654052734375
17.66,-0.04452299326658249,-0.00043010051012970507,-0.013821539469063282,0.039306640625,-0.6451873779296875,-0.7448577880859375
17.68,-0.036605414003133774,-0.009784986265003681,-0.002169144805520773,0.053009033203125,-0.6383514404296875,-0.7536773681640625
17.7,-0.016290023922920227,0.02568618766963482,0.017704429104924202,0.059844970703125,-0.6344757080078125,-0.766754150390625
17.72,0.01986798085272312,0.026761306449770927,0.015542474575340748,0.0528717041015625,-0.6358184814453125,-0.7801513671875
17.74,0.041797515004873276,0.0016929714474827051,0.015173359774053097,0.048431396484375,-0.6450042724609375,-0.7795257568359375
17.76,0.04065981134772301,0.0005379585199989378,0.017254620790481567,0.0479583740234375,-0.649139404296875,-0.7678680419921875
17.78,0.00965928565710783,-0.006135390605777502,0.02455487847328186,0.0373992919921875,-0.6466827392578125,-0.75360107421875
17.8,-0.028363198041915894,0.014197311364114285,-0.019653063267469406,0.030670166015625,-0.6602935791015625,-0.7435760498046875
17.82,-0.04267982020974159,0.048656217753887177,-0.08109644800424576,0.0074310302734375,-0.670867919921875,-0.7444915771484375
17.84,-0.01835450530052185,0.01823998987674713,-0.06583467125892639,0.0222930908203125,-0.648590087890625,-0.7508697509765625
17.86,0.00993305817246437,-0.03755989298224449,-0.002633067313581705,0.0747833251953125,-0.6284332275390625,-0.75555419921875
17.88,-0.03208523243665695,-0.007449926808476448,0.0021406488958746195,0.08380126953125,-0.630401611328125,-0.749755859375
17.9,-0.09181114286184311,0.0500786118209362,-0.05596047267317772,0.0439453125,-0.6527557373046875,-0.7418975830078125
17.92,-0.10753205418586731,0.035773176699876785,-0.057627610862255096,0.0296630859375,-0.65850830078125,-0.7399444580078125
17.94,-0.07016683369874954,-0.00046818371629342437,-0.005846703890711069,0.06744384765625,-0.6499176025390625,-0.761810302734375
17.96,-0.013033510185778141,-0.005340969655662775,0.02690831385552883,0.0799102783203125,-0.6368560791015625,-0.7886810302734375
17.98,0.03117416426539421,-0.004693288821727037,0.03833114355802536,0.06463623046875,-0.6364898681640625,-0.8056640625
18,0.04398024082183838,-0.008472047746181488,0.04077965393662453,0.0540771484375,-0.638427734375,-0.800994873046875
18.02,0.039270173758268356,0.012163189239799976,0.03442561626434326,0.05047607421875,-0.6437530517578125,-0.785430908203125
18.04,0.02606089599430561,0.027832962572574615,0.010784736834466457,0.0370330810546875,-0.64544677734375,-0.77581787109375
18.06,0.02172553539276123,0.010604973882436752,0.004486893769353628,0.0326385498046875,-0.6445159912109375,-0.768280029296875
18.08,0.04547986760735512,-0.0030977888964116573,0.01380848977714777,0.0441131591796875,-0.6383056640625,-0.764404296875
18.1,0.040657948702573776,-0.004530303180217743,0.017361413687467575,0.0466156005859375,-0.630096435546875,-0.76519775390625
18.12,-0.001484445994719863,-0.009665676392614841,0.015199192799627781,0.0465850830078125,-0.6353759765625,-0.751953125
18.14,-0.031128358095884323,-0.013878797180950642,-0.012456136755645275,0.037750244140625,-0.6485595703125,-0.73846435546875
18.16,-0.017830928787589073,-0.011871040798723698,-0.042935747653245926,0.0258026123046875,-0.659820556640625,-0.756103515625
18.18,-0.004742823541164398,-0.023129021748900414,-0.055449675768613815,0.0262451171875,-0.6566314697265625,-0.773193359375
18.2,0.004466653801500797,-0.031570177525281906,-0.050930824130773544,0.0381317138671875,-0.647735595703125,-0.7750091552734375
18.22,0.03491777181625366,-0.05681721121072769,-0.03816016763448715,0.0468902587890625,-0.637847900390625,-0.775634765625
18.24,0.08131509274244308,-0.0644620805978775,-0.03353052958846092,0.04833984375,-0.6287384033203125,-0.7798004150390625
18.26,0.0828288346529007,-0.06189878657460213,-0.042765308171510696,0.037078857421875,-0.6318206787109375,-0.7723541259765625
18.28,0.037028323858976364,-0.060451094061136246,-0.06718995422124863,0.0265045166015625,-0.6445159912109375,-0.7447357177734375
18.3,-0.007458981592208147,-0.07334025949239731,-0.08980152755975723,0.0178070068359375,-0.6599273681640625,-0.72332763671875
18.32,-0.04857072979211807,-0.08156836032867432,-0.11435453593730927,0.01654052734375,-0.661895751953125,-0.723236083984375
18.34,-0.06550151109695435,-0.0779121071100235,-0.1264713853597641,0.0147857666015625,-0.6607666015625,-0.7340850830078125
18.36,-0.05049673095345497,-0.0862981379032135,-0.1345687359571457,0.02117919921875,-0.6548004150390625,-0.7507476806640625
18.38,-0.03504214063286781,-0.10887561738491058,-0.14525705575942993,0.0267486572265625,-0.65301513671875,-0.7666015625
18.4,-0.043908070772886276,-0.09412010759115219,-0.14136485755443573,0.0332794189453125,-0.649200439453125,-0.771270751953125
18.42,-0.034995533525943756,-0.0793992206454277,-0.1173468679189682,0.044708251953125,-0.643951416015625,-0.7752532958984375
18.44,-0.009494169615209103,-0.07886286079883575,-0.09132645279169083,0.0572052001953125,-0.6357269287109375,-0.783416748046875
18.46,0.025525599718093872,-0.07252639532089233,-0.07257087528705597,0.0666351318359375,-0.628570556640625,-0.7828216552734375
18.48,0.04289340600371361,-0.050759848207235336,-0.06212196126580238,0.063232421875,-0.6309356689453125,-0.7818756103515625
18.5,0.033658094704151154,-0.048822399228811264,-0.05579295754432678,0.0611572265625,-0.637664794921875,-0.77459716796875
18.52,0.01817687414586544,-0.05008793622255325,-0.048402685672044754,0.058441162109375,-0.645599365234375,-0.75775146484375
18.54,0.020245883613824844,-0.03056936152279377,-0.05849793180823326,0.0521392822265625,-0.651824951171875,-0.7572021484375
18.56,0.008289887569844723,-0.03203063830733299,-0.07649078220129013,0.040557861328125,-0.655914306640625,-0.7608489990234375
18.58,-0.019871974363923073,-0.023935958743095398,-0.08753278106451035,0.037506103515625,-0.660858154296875,-0.7585296630859375
18.6,-0.04152720421552658,0.008934905752539635,-0.08513433486223221,0.0379638671875,-0.655120849609375,-0.7595672607421875
18.62,-0.018373414874076843,0.014210893772542477,-0.06482906639575958,0.045074462890625,-0.647064208984375,-0.77166748046875
18.64,0.030130205675959587,0.05886651203036308,-0.05283977836370468,0.0526580810546875,-0.6389617919921875,-0.7900238037109375
18.66,0.05505073443055153,0.05871124938130379,-0.06597289443016052,0.0508575439453125,-0.63897705078125,-0.7921905517578125
18.68,0.06039569899439812,0.028188494965434074,-0.03430923819541931,0.06573486328125,-0.63336181640625,-0.76666259765625
18.7,0.04337570443749428,0.00980629213154316,0.02155402861535549,0.097991943359375,-0.6142730712890625,-0.7462615966796875
18.72,0.008268582634627819,0.01595047116279602,0.05349225178360939,0.0992584228515625,-0.609649658203125,-0.736083984375
18.74,-0.022776152938604355,0.034384340047836304,0.03254010155797005,0.074493408203125,-0.631317138671875,-0.733428955078125
18.76,-0.04600930213928223,0.06277390569448471,-0.02008849009871483,0.0435943603515625,-0.661834716796875,-0.746612548828125
18.78,-0.03617770969867706,0.08445017039775848,-0.06617902219295502,0.029327392578125,-0.6814117431640625,-0.7667694091796875
18.8,-0.0008218514849431813,0.08194094151258469,-0.07797389477491379,0.0349884033203125,-0.67559814453125,-0.781982421875
18.82,0.04743063077330589,0.06800967454910278,-0.05710776150226593,0.05712890625,-0.6583404541015625,-0.7891693115234375
18.84,0.08414363861083984,0.06317124515771866,-0.0406760573387146,0.063018798828125,-0.64373779296875,-0.7873077392578125
18.86,0.07804500311613083,0.03784644976258278,-0.03449379652738571,0.065460205078125,-0.638671875,-0.7707672119140625
18.88,0.029628464952111244,0.02671763114631176,-0.030731014907360077,0.070343017578125,-0.6448211669921875,-0.743865966796875
18.9,-0.026972761377692223,0.03524427488446236,-0.030461769551038742,0.067779541015625,-0.64471435546875,-0.730499267578125
18.92,-0.04463697597384453,0.038116227835416794,-0.016326243057847023,0.0681304931640625,-0.6425933837890625,-0.7341461181640625
18.94,-0.025731729343533516,0.016414126381278038,0.011261709034442902,0.075531005859375,-0.6356048583984375,-0.7513275146484375
18.96,-0.0086603332310915,-0.014674549922347069,0.039501603692770004,0.0831298828125,-0.6309356689453125,-0.7596893310546875
18.98,-0.011508850380778313,-0.024701617658138275,0.04905329644680023,0.079376220703125,-0.6331329345703125,-0.7571563720703125
19,-0.012411129660904408,-0.0005526058957912028,0.04888099059462547,0.0700836181640625,-0.638916015625,-0.759979248046875
19.02,-0.004595017991960049,0.0067665595561265945,0.04181189462542534,0.0579833984375,-0.6450958251953125,-0.7694244384765625
19.04,0.0023545008152723312,-0.005303152836859226,0.033134784549474716,0.051055908203125,-0.6505279541015625,-0.7675933837890625
19.06,-0.00002210423735959921,0.0015243934467434883,0.01255094539374113,0.04718017578125,-0.6542816162109375,-0.7638702392578125
19.08,-0.0018461032304912806,0.002261822810396552,-0.003254382871091366,0.0390472412109375,-0.6525115966796875,-0.764892578125
19.1,-0.00875274557620287,0.009382316842675209,-0.003875964554026723,0.0443878173828125,-0.65106201171875,-0.7613983154296875
19.12,-0.012983975932002068,-0.0019350528018549085,-0.005312739871442318,0.049407958984375,-0.6472625732421875,-0.760009765625
19.14,-0.024339960888028145,-0.0075913406908512115,-0.0054605454206466675,0.0522918701171875,-0.64447021484375,-0.7571563720703125
19.16,-0.0217143502086401,-0.012469186447560787,0.012628709897398949,0.0595855712890625,-0.641815185546875,-0.7618408203125
19.18,-0.0017358483746647835,-0.007310110609978437,0.029586920514702797,0.067626953125,-0.6338958740234375,-0.771240234375
19.2,0.016104135662317276,-0.010395648889243603,0.02707209810614586,0.062652587890625,-0.6340179443359375,-0.77685546875
19.22,0.011413242667913437,-0.000595216522924602,0.02442651242017746,0.059234619140625,-0.6382293701171875,-0.771087646484375
19.24,-0.009436910971999168,-0.012002600356936455,0.034200314432382584,0.0624847412109375,-0.6417694091796875,-0.7588653564453125
19.26,-0.006250439211726189,-0.025483522564172745,0.044979192316532135,0.0686492919921875,-0.6454620361328125,-0.754425048828125
19.28,0.014905978925526142,-0.019352925941348076,0.03911437839269638,0.0597381591796875,-0.646759033203125,-0.765380859375
19.3,0.020981714129447937,0.0004945489927195013,0.020911673083901405,0.049591064453125,-0.6525726318359375,-0.7701416015625
