timestamp,gyro_x,gyro_y,gyro_z,acc_x,acc_y,acc_z
0,-0.39000844955444336,-0.24700090289115906,0.07416684925556183,-0.12864899635314941,0.4600314795970917,0.924607515335083
0.02,-0.16524426639080048,-0.2310224175453186,0.01770949922502041,-0.08076400309801102,0.43587547540664673,1.0227869749069214
0.04,-0.005459319334477186,-0.16071702539920807,0.0347532257437706,-0.09348250180482864,0.45539548993110657,0.9961604475975037
0.06,0.09666989743709564,-0.2533923089504242,0.04114462435245514,-0.0680759996175766,0.4592995047569275,1.0047310590744019
0.08,0.06471290439367294,-0.5930684804916382,0.0560578890144825,-0.0680759996175766,0.4592995047569275,1.0047310590744019
0.1,0.0050598569214344025,-0.778419017791748,0.13595037162303925,-0.09006650000810623,0.4383154809474945,0.9470555186271667
0.12,0.4631100594997406,-0.8657681345939636,0.05499265342950821,0.08997499942779541,0.4378274977207184,1.1144089698791504
0.14,0.7058500051498413,-0.6133078932762146,-0.13248835504055023,0.10534700006246567,0.40458250045776367,0.9878644347190857
0.16,0.6781539916992188,-0.5312849879264832,-0.23581595718860626,0.04233400151133537,0.45734748244285583,0.8794065117835999
0.18,0.653653621673584,-0.7528534531593323,-0.27842527627944946,-0.01970299892127514,0.46201401948928833,0.8185895681381226
0.2,0.35232582688331604,-0.9893351793289185,-0.18681524693965912,-0.01970299892127514,0.46201401948928833,0.8185895681381226
0.22,-0.1300915777683258,-1.1745525598526,-0.05898727849125862,-0.04291350021958351,0.5047445297241211,0.7348060011863708
0.24,-0.4592485725879669,-1.2650973796844482,0.06244928762316704,0.0020435000769793987,0.5281990170478821,0.7460300326347351
0.26,-0.5412715077400208,-1.0788147449493408,0.13701559603214264,0.03940599784255028,0.5142605304718018,0.8034310340881348
0.28,-0.5295539498329163,-0.3929378390312195,0.245536208152771,0.03940599784255028,0.5142605304718018,0.8034310340881348
0.3,-0.6955971717834473,0.028894444927573204,0.3179720640182495,0.09851499646902084,0.45368748903274536,0.8278615474700928
0.32,-1.1515169143676758,-0.5366111397743225,0.8366073966026306,0.07408449798822403,0.4348995089530945,0.710863471031189
0.34,-1.3431257009506226,-0.570698618888855,1.1625686883926392,0.07408449798822403,0.4348995089530945,0.710863471031189
0.36,-1.073754906654358,-0.031823836266994476,1.2179608345031738,0.1693664938211441,0.37209999561309814,0.8273735642433167
0.38,-0.24300628900527954,0.5336817502975464,0.9228912591934204,0.2585180103778839,0.3413254916667938,1.1324650049209595
0.4,0.16271434724330902,0.30465665459632874,0.949522078037262,0.29148849844932556,0.27172452211380005,1.1456714868545532
0.42,0.11797455698251724,-0.1671084314584732,1.0304797887802124,0.2983205020427704,0.29688698053359985,0.7829045057296753
0.44,-0.19080986082553864,-1.1660306453704834,0.9058475494384766,0.2983205020427704,0.29688698053359985,0.7829045057296753
0.46,-0.3559209704399109,-1.680538296699524,1.011305570602417,0.24973399937152863,0.267302006483078,0.7174514532089233
0.48,-0.15565717220306396,-1.8146244287490845,1.2435264587402344,0.28929251432418823,0.20624101161956787,0.8078230023384094
0.5,0.23728065192699432,-1.8753427267074585,1.4500484466552734,0.34693750739097595,0.16839049756526947,0.8781865239143372
0.52,0.3139774203300476,-1.9115606546401978,1.294657588005066,0.4429515302181244,0.1681465059518814,0.8515599966049194
0.54,0.00399462366476655,-2.053236722946167,1.0922633409500122,0.5619014501571655,0.14908400177955627,0.7115955352783203
0.56,-0.7467283606529236,-2.2428481578826904,1.6194205284118652,0.5531174540519714,0.09680700302124023,0.6046015024185181
0.58,-1.1589735746383667,-3.3248586654663086,2.2797317504882812,0.3853065073490143,-0.07905599474906921,0.46390500664711
0.6,-1.1121032238006592,-4.190626621246338,2.332993507385254,0.5785239934921265,-0.009211000055074692,0.5222820043563843
0.62,-0.14607007801532745,-4.870112419128418,2.8218023777008057,0.6691395044326782,-0.1042185053229332,0.6944850087165833
0.64,1.5451204776763916,-4.1927571296691895,3.317002534866333,0.5768160223960876,-0.19092999398708344,0.9353435039520264
0.66,2.415282726287842,-4.032040119171143,3.5897021293640137,0.6342170238494873,-0.280599981546402,0.8762344717979431
0.68,2.9083523750305176,-3.8637332916259766,3.6184635162353516,0.6300690174102783,-0.40906599164009094,0.6602944731712341
0.7,3.5367066860198975,-3.275857925415039,3.766530752182007,0.40287449955940247,-0.6084139943122864,0.5997214913368225
0.72,3.9456231594085693,-2.024475336074829,4.646146774291992,0.40287449955940247,-0.6084139943122864,0.5997214913368225
0.74,3.806077480316162,-1.2395317554473877,5.392742156982422,0.651540994644165,-0.7280960083007812,0.4555785059928894
0.76,3.399291753768921,-0.5227631330490112,5.730288028717041,0.651540994644165,-0.7280960083007812,0.4555785059928894
0.78,3.380117654800415,-0.18734785914421082,5.537613868713379,1.1210579872131348,-0.5453704595565796,0.5953295230865479
0.8,3.5505547523498535,-0.12769481539726257,4.860259056091309,1.452288031578064,-0.4208085238933563,0.6932650208473206
0.82,3.581446647644043,-0.335415244102478,3.6461594104766846,2.3323960304260254,-0.05929199978709221,0.37081900238990784
0.84,3.0818521976470947,-0.44087332487106323,1.2765486240386963,2.3323960304260254,-0.05929199978709221,0.37081900238990784
0.86,2.0946476459503174,-0.25765323638916016,-1.159106731414795,2.8280208110809326,0.23847949504852295,-0.015860000625252724
0.88,0.05193011090159416,0.46337637305259705,-3.576653003692627,2.689032554626465,0.23042751848697662,-0.39692699909210205
0.9,-1.3260819911956787,0.933010995388031,-4.889819145202637,2.1435704231262207,-0.06880799680948257,-0.6292150020599365
0.92,-2.1887874603271484,1.2738854885101318,-5.717371940612793,1.6501414775848389,-0.35532501339912415,-0.39277899265289307
0.94,-2.4368536472320557,1.1172963380813599,-5.617239952087402,1.140578031539917,-0.6895135045051575,-0.08497299998998642
0.96,-1.9235445261001587,0.24180789291858673,-4.526707649230957,0.5560455322265625,-0.7288280129432678,0.27459150552749634
0.98,-2.2537667751312256,-1.5910587310791016,-3.6618716716766357,-0.09323850274085999,-0.6245180368423462,0.379877507686615
1,-2.599834442138672,-2.226869583129883,-2.7151458263397217,0.3076229989528656,-0.1252330094575882,-0.0915914997458458
1.02,-3.2111449241638184,-1.5409927368164062,-1.0866708755493164,0.0550525039434433,-0.38978999853134155,0.2719075083732605
1.04,-3.301689863204956,-1.8806688785552979,-0.3583177626132965,0.2504660189151764,-0.4598790109157562,0.45021048188209534
1.06,-2.2676148414611816,-3.519796133041382,0.5651060938835144,0.3173829913139343,-0.8489980101585388,0.6510224938392639
1.08,-0.6073159575462341,-4.6177849769592285,1.3308755159378052,0.3173829913139343,-0.8489980101585388,0.6510224938392639
1.1,1.997711420059204,-4.727504253387451,1.3915938138961792,0.5199030041694641,-0.9909449815750122,1.1175810098648071
1.12,3.7570769786834717,-2.0170187950134277,1.034740686416626,1.058990478515625,-0.8888309597969055,0.9602619409561157
1.14,3.309812068939209,-0.34393709897994995,1.1071765422821045,0.9688630104064941,-0.8001675009727478,0.2071560174226761
1.16,1.5355334281921387,-0.2853493094444275,1.3521801233291626,0.8494250178337097,-0.629397988319397,-0.9296705722808838
1.18,1.184139609336853,1.4058412313461304,2.2136874198913574,0.686493992805481,-0.606950044631958,-0.42550548911094666
1.2,1.534468173980713,1.5230169296264648,2.3479068279266357,0.9634949564933777,-0.7144320011138916,0.14048300683498383
1.22,1.8805357217788696,0.811574399471283,2.145512580871582,1.1774829626083374,-0.6303739547729492,0.09552599489688873
1.24,2.2906503677368164,1.1907973289489746,2.1987740993499756,0.9686190485954285,-0.5258504748344421,0.36423102021217346
1.26,2.5152814388275146,0.7625737190246582,1.804771065711975,1.1755309104919434,-0.39027801156044006,0.6114335060119629
1.28,2.2203450202941895,1.2397980690002441,1.5256799459457397,1.3577380180358887,-0.18019400537014008,0.5286259651184082
1.3,2.405695676803589,1.2078410387039185,0.8536511063575745,1.7248969078063965,0.018147500231862068,0.7057394981384277
1.32,2.9701359272003174,0.2684387266635895,-0.45938172936439514,2.040968418121338,0.2878285050392151,0.6774049997329712
1.34,2.743241310119629,-0.2523270845413208,-1.3519138097763062,1.9334864616394043,0.350353479385376,0.2286584973335266
1.36,1.7602975368499756,-0.3087844252586365,-2.1400530338287354,1.7302650213241577,0.3344935178756714,-0.16534049808979034
1.38,0.05512581020593643,0.22689463198184967,-2.836449146270752,1.6049405336380005,0.29319649934768677,-0.5236850380897522
1.4,-1.0300803184509277,0.19813334941864014,-3.3285868167877197,1.254404067993164,0.0718884989619255,-0.6688039898872375
1.42,-1.6690870523452759,0.16617634892463684,-3.454151153564453,1.1476844549179077,-0.15600749850273132,-0.46750399470329285
1.44,-1.415561556816101,-1.2746844291687012,-3.070800542831421,0.4756779968738556,-0.5172799825668335,0.213530495762825
1.46,-0.009720250964164734,-3.1980957984924316,-0.7714950442314148,-0.4208085238933563,-0.6513884663581848,0.8346934914588928
1.48,-0.47522708773612976,-2.0745413303375244,0.8589772582054138,-0.4208085238933563,-0.6513884663581848,0.8346934914588928
1.5,-1.7809364795684814,-1.2001181840896606,0.5533885359764099,1.4666839838027954,0.06530049443244934,-0.008295999839901924
1.52,-2.2409839630126953,-0.7933322787284851,-0.20385897159576416,1.4666839838027954,0.06530049443244934,-0.008295999839901924
1.54,-2.4847891330718994,-0.9605738520622253,0.23701435327529907,0.8723610043525696,-0.23003101348876953,0.18272550404071808
1.56,-3.0652079582214355,-2.601698398590088,1.1529816389083862,0.34400951862335205,-0.17458200454711914,0.0659715011715889
1.58,-3.5530848503112793,-3.7646665573120117,2.42673397064209,0.4451475143432617,-0.29011598229408264,-0.1568005084991455
1.6,-2.636052370071411,-3.4835782051086426,2.524735450744629,0.4451475143432617,-0.29011598229408264,-0.1568005084991455
1.62,-2.266549587249756,-1.0937280654907227,2.145512580871582,1.7490836381912231,-0.3643834888935089,-0.09476349502801895
1.64,-3.1866445541381836,2.444310426712036,1.7685531377792358,1.6525815725326538,-0.41126200556755066,-0.1568005084991455
1.66,-3.9928927421569824,5.085422515869141,1.7685531377792358,1.6525815725326538,-0.41126200556755066,-0.1568005084991455
1.68,-4.948140621185303,4.463459491729736,3.237243175506592,1.3975709676742554,-0.6357724666595459,-0.11233150213956833
1.7,-4.491288661956787,0.17895914614200592,6.163837909698486,0.3144550025463104,-0.5888634920120239,0.14951099455356598
1.72,-2.2228751182556152,-3.9063427448272705,6.727212905883789,0.2335994839668274,-0.9340320229530334,-0.20492950081825256
1.74,0.8645697236061096,-1.5921238660812378,0.7078473567962646,2.1369824409484863,-0.4967840313911438,0.20520401000976562
1.76,1.550446629524231,-2.6602864265441895,0.34460288286209106,1.0419104099273682,-0.8895629644393921,-0.26330649852752686
1.78,0.24899822473526,-4.373847007751465,1.2829400300979614,0.4121769964694977,-0.7334640026092529,-0.5862404704093933
1.8,-0.05659050494432449,-4.814720153808594,0.5917369723320007,0.7802814841270447,-0.7085455060005188,-0.32339149713516235
1.82,0.6611102223396301,-2.7668097019195557,-0.7256900072097778,0.995977520942688,-0.6895135045051575,0.18077349662780762
1.84,0.09666989743709564,-0.08188978582620621,-0.1346188187599182,0.26583799719810486,-0.5654090046882629,-0.13603000342845917
1.86,-0.27176758646965027,1.1513837575912476,-0.0014646954368799925,0.6935700178146362,-0.7513065338134766,-0.04248649999499321
1.88,-0.066177599132061,1.8532391786575317,-0.07070484012365341,0.7807695269584656,-0.6772830486297607,-0.1592404991388321
1.9,0.00719032296910882,2.0224781036376953,-0.1665758192539215,0.7192205190658569,-0.629397988319397,-0.2623305022716522
1.92,-0.15672241151332855,2.0725440979003906,-0.11544463038444519,0.5528734922409058,-0.6523644924163818,-0.3844524919986725
1.94,-1.1152989864349365,2.2238070964813232,0.19134248793125153,0.5775480270385742,-0.6653270125389099,-0.42892149090766907
1.96,-1.1397993564605713,1.6455186605453491,0.22849248349666595,0.7558510303497314,-0.6311364769935608,-0.30018100142478943
1.98,-0.6881405115127563,1.062969446182251,0.1721682846546173,0.46786999702453613,-0.19410200417041779,-0.4753425121307373
2,0.20319320261478424,-0.3471328020095825,0.9143694043159485,0.46786999702453613,-0.19410200417041779,-0.4753425121307373
2.02,0.7463288903236389,-1.3801425695419312,2.0401875972747803,0.38603848218917847,-0.3690195083618164,-0.10330349951982498
2.04,1.2086399793624878,-0.777353823184967,2.0146219730377197,0.7250764966011047,-0.6171979904174805,-0.10159549862146378
2.06,0.8262213468551636,-1.258705973625183,1.8633588552474976,0.7250764966011047,-0.6171979904174805,-0.10159549862146378
2.08,0.5440677404403687,-1.1118369102478027,1.9049029350280762,0.5455229878425598,-0.9503800272941589,-0.20151349902153015
2.1,-0.4517919421195984,0.872292697429657,1.7334004640579224,0.7267844676971436,-1.478518009185791,-0.18611100316047668
2.12,-0.4262263774871826,1.049121379852295,1.9080986976623535,0.6584035158157349,-1.0287954807281494,-0.2672105133533478
2.14,0.2404763549566269,0.23115555942058563,2.379863739013672,0.3845745027065277,-0.9440360069274902,-0.21127350628376007
2.16,0.42795735597610474,0.6679010987281799,1.6428556442260742,0.5045004487037659,-1.0141555070877075,-0.1650964915752411
2.18,0.18295377492904663,0.8946625590324402,0.3829512596130371,0.44563552737236023,-0.9596824645996094,-0.24644000828266144
2.2,0.2170412242412567,0.5944000482559204,-0.2762948274612427,0.3806400001049042,-0.9286335110664368,-0.20736949145793915
2.22,-0.017176883295178413,-0.007323476951569319,0.8621729612350464,-0.009455000050365925,-0.9897249937057495,-0.2652585208415985
2.24,0.4013265371322632,-1.473883032798767,1.4054418802261353,0.3904304802417755,-0.9950929880142212,-0.28139299154281616
2.26,0.6664364337921143,-1.3183590173721313,1.491592526435852,0.3088430166244507,-0.8130995035171509,-0.17537499964237213
2.28,0.2830856740474701,-0.36311131715774536,1.1519163846969604,0.20746099948883057,-0.9154574871063232,-0.12261000275611877
2.3,-0.1737661361694336,0.29293906688690186,0.21158191561698914,0.2895365059375763,-0.8819990158081055,-0.07008899748325348
2.32,-0.16737474501132965,0.17363297939300537,-0.09200949966907501,0.164730504155159,-0.8299659490585327,-0.12261000275611877
2.34,0.03488638252019882,0.023568280041217804,-0.08348763734102249,0.267302006483078,-0.8617164492607117,-0.19736550748348236
2.36,0.2085193693637848,-1.4515131711959839,-0.2102503627538681,0.06627649813890457,-0.7979715466499329,-0.39107102155685425
2.38,-0.3228987455368042,0.7370080947875977,1.4011808633804321,0.31884700059890747,-0.948915958404541,-0.10623149573802948
2.4,-0.2813546657562256,-0.6527215242385864,1.5938549041748047,0.18766650557518005,-0.9618784785270691,-0.15899650752544403
2.42,-0.13541774451732635,-0.955247700214386,1.683334469795227,0.21624499559402466,-1.065425992012024,-0.11553400754928589
2.44,0.15099677443504333,-0.8348763585090637,1.861228346824646,0.16668249666690826,-1.0544459819793701,-0.14972449839115143
2.46,-0.25259336829185486,0.21517707407474518,1.6705516576766968,0.1840064972639084,-1.0070489645004272,-0.22789600491523743
2.48,-0.42196542024612427,-0.1351514458656311,1.7334004640579224,0.07408449798822403,-0.9476959705352783,-0.19513900578022003
2.5,-0.036351077258586884,-1.2171618938446045,2.327667236328125,0.04062599688768387,-0.886879026889801,-0.21322551369667053
2.52,0.14886631071567535,-1.6709511280059814,2.355363368988037,-0.004575000144541264,-0.9545280337333679,-0.1726910024881363
2.54,-0.061916667968034744,-1.710364818572998,2.3063626289367676,-0.10299849510192871,-0.9762744903564453,-0.2567185163497925
2.56,-0.2472672164440155,-1.8902560472488403,2.0433833599090576,0.0794524997472763,-0.8585445284843445,-0.24351198971271515
2.58,-0.23128871619701385,-0.22356578707695007,1.4033113718032837,-0.13474899530410767,-1.0009490251541138,-0.1037914976477623
2.6,-0.09387365728616714,-0.1553908735513687,1.0698933601379395,-0.27889201045036316,-1.0637179613113403,-0.1731790006160736
2.62,-0.012915950268507004,-0.22569625079631805,0.6460638046264648,-0.30649450421333313,-0.8878549933433533,-0.1655845046043396
2.64,-0.012915950268507004,-0.05632419511675835,0.2147776037454605,-0.30649450421333313,-0.8878549933433533,-0.1655845046043396
2.66,-0.066177599132061,-0.23634858429431915,-0.05685681104660034,-0.3760955035686493,-0.9100895524024963,-0.19074700772762299
2.68,-0.040612008422613144,-0.34500235319137573,-0.15059731900691986,-0.3760955035686493,-0.9100895524024963,-0.19074700772762299
2.7,0.04447348043322563,-0.571763813495636,-0.2613815665245056,-0.4098285138607025,-0.9889929890632629,-0.2181054949760437
2.72,0.10625699162483215,-0.5621767044067383,-0.19427187740802765,-0.4298365116119385,-1.076924443244934,-0.19687749445438385
2.74,-0.03848154470324516,-0.42596006393432617,-0.4220985770225525,-0.3301929831504822,-0.9562360048294067,-0.19660300016403198
2.76,-0.0768299326300621,-0.6665695905685425,-0.6905373334884644,-0.2903600037097931,-0.8700124621391296,-0.16924449801445007
2.78,0.1009308323264122,-0.400394469499588,-0.7544512748718262,-0.2903600037097931,-0.8700124621391296,-0.16924449801445007
2.8,0.20106273889541626,0.31530898809432983,-0.7043853402137756,-0.1789740025997162,-0.9679784774780273,-0.15777650475502014
2.82,0.12649641931056976,-0.08828118443489075,-0.305056095123291,-0.1912045031785965,-1.022207498550415,-0.21737349033355713
2.84,0.03382114693522453,-0.13195574283599854,-0.0014646954368799925,-0.1714099943637848,-1.014399528503418,-0.1853789985179901
2.86,0.04660394415259361,-0.061650361865758896,0.09973244369029999,-0.2075524926185608,-0.9709064960479736,-0.15948450565338135
2.88,0.08814803510904312,-0.5067846179008484,0.12636326253414154,-0.1521034985780716,-0.9037150144577026,-0.18049900233745575
2.9,0.08601756393909454,-0.6282211542129517,0.5523233413696289,-0.14234349131584167,-0.9648065567016602,-0.06106100231409073
2.92,-0.45392242074012756,0.20772044360637665,0.8376725912094116,-0.19144849479198456,-1.1125789880752563,-0.19760949909687042
2.94,0.03275591507554054,0.3952014446258545,0.3850817382335663,-0.0773480013012886,-0.9130174517631531,-0.10110750049352646
2.96,0.3544562757015228,-0.10745538026094437,-0.04726971685886383,-0.10080250352621078,-0.8905390501022339,-0.15997250378131866
2.98,0.33954301476478577,-0.6729609370231628,-0.24966399371623993,-0.4862615168094635,-0.8719645142555237,-0.16582851111888885
3,-0.067242830991745,0.054460037499666214,0.01983996480703354,-0.7075694799423218,-0.9537959694862366,-0.16607250273227692
3.02,-0.17909230291843414,-0.033954303711652756,-0.12929265201091766,-0.3475169837474823,-0.8871230483055115,-0.1592404991388321
3.04,-0.2153102308511734,0.1491326242685318,-0.24433782696723938,-0.3907659947872162,-0.9313479661941528,-0.11553400754928589
3.06,-0.237680122256279,0.12356702983379364,-0.21344606578350067,-0.26324549317359924,-1.197582483291626,-0.21151749789714813
3.08,0.4844147264957428,-0.8572462797164917,-0.178293377161026,-0.2114565074443817,-0.8389939665794373,-0.03172000125050545
3.1,0.4844147264957428,0.5390079021453857,-0.7629731297492981,-0.2114565074443817,-0.8389939665794373,-0.03172000125050545
3.12,0.26497671008110046,-0.008388710208237171,-0.5275566577911377,-0.1714099943637848,-0.8998110294342041,-0.17659500241279602
3.14,0.05299534276127815,-0.3077192008495331,-0.2304897904396057,-0.16064350306987762,-0.987773060798645,-0.18855100870132446
3.16,-0.006524552125483751,-0.21397867798805237,-0.0025299284607172012,-0.19340050220489502,-1.002413034439087,-0.15411649644374847
3.18,-0.026763979345560074,-0.025432437658309937,0.05392742156982422,-0.21953900158405304,-1.0031449794769287,-0.054442498832941055
3.2,-0.017176883295178413,-0.25978371500968933,0.04434032365679741,-0.22832299768924713,-0.9691985249519348,-0.18977099657058716
3.22,-0.020372580736875534,-0.2619141638278961,-0.009986559860408306,-0.1736059933900833,-0.9516000151634216,-0.1130634993314743
3.24,-0.005459319334477186,0.04913387447595596,0.05818835273385048,-0.1736059933900833,-0.9516000151634216,-0.1130634993314743
3.26,0.026364516466856003,-0.020106272771954536,0.1412765234708786,-0.25909748673439026,-0.9762744903564453,-0.17391100525856018
3.28,0.1009308323264122,0.033155377954244614,0.05392742156982422,-0.25909748673439026,-0.9762744903564453,-0.17391100525856018
3.3,0.04021254554390907,0.10758853703737259,0.04220985993742943,-0.24003499746322632,-0.9364719390869141,-0.11452750116586685
3.32,0.030625449493527412,0.07150376588106155,0.02197043038904667,-0.24003499746322632,-0.9364719390869141,-0.11452750116586685
3.34,0.04340824484825134,0.058720968663692474,0.014513799920678139,-0.23515498638153076,-0.9450119733810425,-0.12309800833463669
3.36,0.05193011090159416,0.0555252730846405,0.011318100616335869,-0.23735098540782928,-0.9604145288467407,-0.12065799534320831
3.38,0.06790860742330551,0.05232957378029823,0.015579032711684704,-0.24052299559116364,-0.9674904942512512,-0.10793950408697128
3.4,0.07962616533041,0.043807707726955414,0.02836182899773121,-0.23271499574184418,-0.9626104831695557,-0.11403950303792953
3.42,0.09453943371772766,0.036351077258586884,0.04007939249277115,-0.2336909919977188,-0.9606585502624512,-0.10598750412464142
3.44,0.09453943371772766,0.016111649572849274,0.04966649040579796,-0.21831899881362915,-0.9452559351921082,-0.10769549757242203
3.46,0.06471290439367294,-0.07656362652778625,0.02623136341571808,-0.21831899881362915,-0.9452559351921082,-0.10769549757242203
3.48,0.09134373068809509,-0.021171506494283676,0.04007939249277115,-0.21780049800872803,-0.9435479640960693,-0.10110750049352646
3.5,0.07962616533041,-0.014780107885599136,0.05286218971014023,-0.2109685093164444,-0.9555040001869202,-0.08692499995231628
3.52,0.07749570161104202,-0.010519175790250301,0.09014534205198288,-0.21316450834274292,-0.9738345146179199,-0.07862900197505951
3.54,0.10838746279478073,0.033155377954244614,0.11358047276735306,-0.23003101348876953,-0.998753011226654,-0.061549004167318344
3.56,0.04873441159725189,0.0033288532868027687,0.04860125854611397,-0.23003101348876953,-0.998753011226654,-0.061549004167318344
3.58,-0.037416309118270874,-0.030758604407310486,-0.02596505545079708,-0.2202710062265396,-0.9809104800224304,-0.07326100021600723
3.6,-0.07576470077037811,-0.06697652488946915,-0.08029194176197052,-0.22124701738357544,-0.9528200030326843,-0.10013149678707123
3.62,-0.043807707726955414,-0.11810771375894547,-0.11544463038444519,-0.23515498638153076,-0.9423280358314514,-0.1142834946513176
3.64,-0.020372580736875534,-0.08721595257520676,-0.10798799991607666,-0.24689750373363495,-0.9557480216026306,-0.12236599624156952
3.66,-0.057655736804008484,-0.059519894421100616,-0.1143793985247612,-0.24689750373363495,-0.9557480216026306,-0.12236599624156952
3.68,-0.07256899774074554,-0.04673709720373154,-0.08455286920070648,-0.25860950350761414,-0.9650505185127258,-0.11797399818897247
3.7,-0.060851436108350754,-0.013714875094592571,-0.039813082665205,-0.24320700764656067,-0.9630984663963318,-0.11821800470352173
3.72,-0.04274247586727142,0.011850717477500439,-0.0014646954368799925,-0.23295898735523224,-0.9533079862594604,-0.1335899978876114
3.74,0.0007989247678779066,0.037416309118270874,0.02197043038904667,-0.2378389984369278,-0.9555040001869202,-0.12993000447750092
3.76,0.05299534276127815,0.041677240282297134,0.02303566411137581,-0.2290550023317337,-0.9288774728775024,-0.13920199871063232
3.78,0.10945269465446472,0.03848154470324516,0.01877473294734955,-0.2290550023317337,-0.9288774728775024,-0.13920199871063232
3.8,0.12436595559120178,0.027829213067889214,0.02623136341571808,-0.22685900330543518,-0.9300974607467651,-0.13261400163173676
3.82,0.12436595559120178,0.03848154470324516,0.01983996480703354,-0.22124701738357544,-0.9455000758171082,-0.12334199994802475
3.84,0.12543119490146637,0.061916667968034744,0.02516612969338894,-0.2244189828634262,-0.9660264849662781,-0.11870599538087845
3.86,0.11903978884220123,0.03954677656292915,0.04647079110145569,-0.22344301640987396,-0.972370445728302,-0.11355149745941162
3.88,0.14034445583820343,0.023568280041217804,0.05712312087416649,-0.22222298383712769,-0.964318573474884,-0.1008635014295578
3.9,0.08388710021972656,0.04593817517161369,0.03794892504811287,-0.23442301154136658,-0.9713944792747498,-0.11675400286912918
3.92,0.04234301298856735,0.07256899774074554,0.02516612969338894,-0.2121885120868683,-0.9494039416313171,-0.08106900006532669
3.94,0.014646953903138638,0.07150376588106155,0.009187635034322739,-0.227835014462471,-0.9496479630470276,-0.07960499823093414
3.96,-0.012915950268507004,0.04913387447595596,-0.007856093347072601,-0.23442301154136658,-0.9567239880561829,-0.07106500118970871
3.98,-0.026763979345560074,0.04913387447595596,-0.02276935614645481,-0.24320700764656067,-0.9576999545097351,-0.06447699666023254
4,-0.027829213067889214,0.06404713541269302,-0.02916075475513935,-0.24198700487613678,-0.9574559926986694,-0.06374499946832657
4.02,-0.03528584539890289,0.08215609937906265,-0.02063889056444168,-0.2517774999141693,-0.9645625352859497,-0.06228099763393402
4.04,-0.033155377954244614,0.11824086308479309,-0.02596505545079708,-0.2605614960193634,-0.9689545631408691,-0.06228099763393402
4.06,-0.026763979345560074,0.1288931965827942,-0.02809552103281021,-0.2639774978160858,-0.9660264849662781,-0.05371050164103508
4.08,-0.04274247586727142,0.1171756312251091,-0.011051792651414871,-0.2564135193824768,-0.972370445728302,-0.0541984960436821
4.1,-0.036351077258586884,0.10758853703737259,0.0017310036346316338,-0.2424750030040741,-0.9587064981460571,-0.06447699666023254
4.12,-0.03209014609456062,0.10971900075674057,0.007057168986648321,-0.23173899948596954,-0.9596824645996094,-0.07814100384712219
4.14,-0.029959678649902344,0.1171756312251091,0.01664426550269127,-0.21880699694156647,-0.9728584289550781,-0.08546099811792374
4.16,-0.043807707726955414,0.12356702983379364,0.02197043038904667,-0.21880699694156647,-0.9721264839172363,-0.09134750068187714
4.18,-0.05978620424866676,0.1065233051776886,0.007057168986648321,-0.221002995967865,-0.9638304710388184,-0.08594900369644165
4.2,-0.07469946891069412,0.09174319356679916,-0.011051792651414871,-0.2285669893026352,-0.9667584896087646,-0.08793149888515472
4.22,-0.08428656309843063,0.09174319356679916,-0.015312724746763706,-0.22929899394512177,-0.9667584896087646,-0.09305550158023834
4.24,-0.04913387447595596,0.06298190355300903,-0.015312724746763706,-0.21755650639533997,-0.9589504599571228,-0.10110750049352646
4.26,0.022103585302829742,0.05232957378029823,0.008122402243316174,-0.20730850100517273,-0.9433040022850037,-0.108427494764328
4.28,0.08814803510904312,0.034220609813928604,0.02410089783370495,-0.20877251029014587,-0.9357399940490723,-0.11330750584602356
4.3,0.15951864421367645,0.05978620424866676,0.04220985993742943,-0.21804450452327728,-0.9210695028305054,-0.10476750135421753
4.32,0.1446053832769394,0.28015628457069397,0.1295589655637741,-0.23686300218105316,-0.9208254814147949,-0.09988749772310257
4.34,-0.13754820823669434,0.1906767040491104,0.1945381760597229,-0.24052299559116364,-0.9430599808692932,-0.0950075015425682
4.36,-0.9896014928817749,0.0991998240351677,0.222101092338562,-0.2644655108451843,-1.0224515199661255,-0.10574350506067276
4.38,-1.0183627605438232,0.15126308798789978,0.21903854608535767,-0.29060399532318115,-1.0329434871673584,-0.12456199526786804
4.4,0.024234050884842873,0.2450035959482193,0.1306242048740387,-0.2600735127925873,-0.8761125206947327,-0.07716500014066696
4.42,0.7441984415054321,0.10239552706480026,0.12423279881477356,-0.2564135193824768,-0.8651325106620789,-0.20834550261497498
4.44,0.9103747606277466,0.0768299326300621,0.07097115367650986,-0.2063324898481369,-0.8756245374679565,-0.17488700151443481
4.46,0.8784177899360657,-0.026497671380639076,0.01770949922502041,-0.2051125019788742,-0.9264375567436218,-0.13798199594020844
4.48,0.5696333646774292,-0.17136935889720917,-0.06218297779560089,-0.1638460010290146,-1.0195235013961792,-0.09744749963283539
4.5,0.2191716879606247,-0.2768274247646332,-0.10585752874612808,-0.16775000095367432,-1.0016809701919556,-0.06203699856996536
4.52,-0.08535179495811462,-0.16284750401973724,-0.06644391268491745,-0.17677800357341766,-0.9579439759254456,-0.03736249729990959
4.54,-0.1205044835805893,-0.2001306563615799,-0.05472634732723236,-0.21316450834274292,-1.0031449794769287,-0.08106900006532669
4.56,-0.011850717477500439,-0.23315288126468658,-0.07496577501296997,-0.24076701700687408,-0.9997289776802063,-0.10135149955749512
4.58,0.016777420416474342,-0.1990654170513153,-0.07603100687265396,-0.269833505153656,-0.96236652135849,-0.10452349483966827
4.6,-0.0011983871227130294,-0.145803764462471,-0.06218297779560089,-0.27425602078437805,-0.9415960311889648,-0.09183549880981445
4.62,-0.004394086077809334,-0.10958584398031235,-0.05579157918691635,-0.2705655097961426,-0.9425719976425171,-0.09573949873447418
4.64,-0.009720250964164734,-0.08934641629457474,-0.05685681104660034,-0.2651975154876709,-0.9591944813728333,-0.08131299912929535
4.66,-0.008655018173158169,-0.08402025699615479,-0.07070484012365341,-0.247141495347023,-0.968222439289093,-0.07887300103902817
4.68,-0.022503048181533813,-0.08615072071552277,-0.08455286920070648,-0.23247100412845612,-0.9709064960479736,-0.07326100021600723
4.7,-0.10133028775453568,-0.08508548885583878,-0.12396649271249771,-0.23100700974464417,-0.9833505153656006,-0.07862900197505951
4.72,-0.19720126688480377,-0.009453942999243736,-0.1346188187599182,-0.24027900397777557,-0.9731025695800781,-0.07179700583219528
4.74,-0.19613602757453918,0.007589785382151604,-0.12716218829154968,-0.2244189828634262,-0.9266815185546875,-0.0798489972949028
4.76,-0.17802706360816956,0.06404713541269302,-0.10905323177576065,-0.23393499851226807,-0.9437919855117798,-0.08472900092601776
4.78,-0.14287437498569489,0.1288931965827942,-0.03342168778181076,-0.22246700525283813,-0.9340320229530334,-0.07570099830627441
4.8,-0.2270277887582779,0.2013290375471115,-0.03555215150117874,-0.24271899461746216,-0.9892370104789734,-0.0886635035276413
4.82,-0.47629231214523315,0.4495283365249634,-0.11650986224412918,-0.23857101798057556,-0.9965570569038391,-0.07643300294876099
4.84,-0.7339455485343933,0.7636389136314392,-0.15272778272628784,-0.2227109968662262,-0.9804224967956543,-0.08521699905395508
4.86,-0.9597749710083008,1.0714912414550781,-0.21238084137439728,-0.2121885120868683,-0.959926426410675,-0.09769149869680405
4.88,-0.6030550599098206,0.26098209619522095,-0.3039908707141876,-0.2068205028772354,-0.9178975224494934,-0.1416420042514801
4.9,0.04234301298856735,-0.1788259893655777,-0.13994498550891876,-0.20023249089717865,-0.9496479630470276,-0.1323700100183487
4.92,0.3874785006046295,-0.3726983964443207,-0.00359516148455441,-0.15283550322055817,-0.9691985249519348,-0.18757499754428864
4.94,0.4119788706302643,-0.509980320930481,0.02942706272006035,-0.17750999331474304,-0.9508680105209351,-0.1853789985179901
4.96,0.22236739099025726,-0.4632432162761688,0.02942706272006035,-0.18385399878025055,-0.966514527797699,-0.14017799496650696
4.98,0.10838746279478073,-0.34393709897994995,-0.008921326138079166,-0.20267249643802643,-0.9533079862594604,-0.10867150127887726
5,0.04447348043322563,-0.27895790338516235,-0.03129122033715248,-0.19437649846076965,-0.9472079873085022,-0.10110750049352646
5.02,-0.04593817517161369,-0.1692388951778412,-0.03342168778181076,-0.18751400709152222,-0.9547720551490784,-0.11159949749708176
5.04,-0.021437814459204674,-0.1149120107293129,0.02623136341571808,-0.18751400709152222,-0.9648065567016602,-0.11330750584602356
5.06,0.013581721112132072,-0.13302096724510193,0.04114462435245514,-0.1946205049753189,-0.960170567035675,-0.16778050363063812
5.08,0.00399462366476655,-0.11171631515026093,0.03581846132874489,-0.1946205049753189,-0.960170567035675,-0.16778050363063812
5.1,-0.023568280041217804,-0.10639014840126038,0.01983996480703354,-0.19632850587368011,-0.957211971282959,-0.1370059996843338
5.12,-0.027829213067889214,-0.11065108329057693,-0.03129122033715248,-0.20438048243522644,-0.9621224999427795,-0.1416420042514801
5.14,-0.016111649572849274,-0.06271559745073318,-0.03342168778181076,-0.20438048243522644,-0.9621224999427795,-0.1416420042514801
5.16,-0.006524552125483751,0.009720250964164734,-0.007856093347072601,-0.2168245017528534,-0.9576999545097351,-0.11943800002336502
5.18,0.009320789016783237,0.008655018173158169,0.005991935729980469,-0.2168245017528534,-0.9569680094718933,-0.1282220035791397
5.2,0.019973119720816612,0.03209014609456062,0.02623136341571808,-0.21831899881362915,-0.9650505185127258,-0.13505400717258453
5.22,0.016777420416474342,0.03848154470324516,0.0038614696823060513,-0.2231989949941635,-0.9621224999427795,-0.11650999635457993
5.24,-0.011850717477500439,0.012915950268507004,-0.03768261894583702,-0.2244189828634262,-0.9709064960479736,-0.12529399991035461
5.26,-0.048068638890981674,0.004394086077809334,-0.06537867337465286,-0.21584850549697876,-0.9792025089263916,-0.12968599796295166
5.28,-0.022503048181533813,0.024633513763546944,-0.01744319126009941,-0.2273470014333725,-0.9545280337333679,-0.11650999635457993
5.3,0.04340824484825134,0.0001331541279796511,0.015579032711684704,-0.19242450594902039,-0.9604145288467407,-0.11233150213956833
5.32,0.06151720881462097,-0.024367205798625946,0.012383334338665009,-0.2004764974117279,-0.9587064981460571,-0.11870599538087845
5.34,0.06045197322964668,-0.011584409512579441,-0.012117025442421436,-0.2004764974117279,-0.9587064981460571,-0.11870599538087845
5.36,0.09240896254777908,-0.021171506494283676,-0.014247491955757141,-0.2051125019788742,-0.9591944813728333,-0.12285400182008743
5.38,0.10838746279478073,-0.022236740216612816,-0.006790860556066036,-0.2016965001821518,-0.9562360048294067,-0.11553400754928589
5.4,0.08708280324935913,0.028894444927573204,-0.05685681104660034,-0.20389249920845032,-0.9520879983901978,-0.11233150213956833
5.42,0.0689738392829895,0.013981183059513569,-0.04940018057823181,-0.2168245017528534,-0.9188735485076904,-0.12529399991035461
5.44,0.09560466557741165,0.007589785382151604,0.02410089783370495,-0.18727000057697296,-0.9464760422706604,-0.12871000170707703
5.46,0.11690932512283325,-0.026497671380639076,0.07203638553619385,-0.1503954976797104,-0.9684664607048035,-0.11943800002336502
5.48,0.09134373068809509,-0.05312849581241608,0.08162347972393036,-0.16799400746822357,-0.9691985249519348,-0.12114600092172623
5.5,0.026364516466856003,-0.025432437658309937,0.04114462435245514,-0.16799400746822357,-0.9691985249519348,-0.12114600092172623
5.52,-0.015046416781842709,-0.050998032093048096,-0.006790860556066036,-0.18775799870491028,-0.9594384431838989,-0.12041400372982025
5.54,0.0018641578499227762,-0.041410934180021286,-0.01957365684211254,-0.20120850205421448,-0.955016016960144,-0.123586006462574
5.56,-0.011850717477500439,-0.010519175790250301,-0.0185084231197834,-0.19092999398708344,-0.9567239880561829,-0.1218779981136322
5.58,-0.08002562820911407,0.020372580736875534,-0.04620448127388954,-0.18800200521945953,-0.9604145288467407,-0.11992600560188293
5.6,-0.151396244764328,0.11291470378637314,-0.0611177459359169,-0.19730450212955475,-0.9626104831695557,-0.11208749562501907
5.62,-0.1716356724500656,0.19493764638900757,-0.04620448127388954,-0.19681650400161743,-0.9704185128211975,-0.10061950236558914
5.64,-0.1418091505765915,0.2332860380411148,-0.011051792651414871,-0.1958404928445816,-0.9579439759254456,-0.11184350401163101
5.66,-0.05659050494432449,0.16511112451553345,0.03688369318842888,-0.19340050220489502,-0.9667584896087646,-0.11062350869178772
5.68,0.04979964345693588,0.026763979345560074,0.07416684925556183,-0.20145249366760254,-0.9621224999427795,-0.13041800260543823
5.7,0.13927921652793884,-0.10639014840126038,0.09227581322193146,-0.20584450662136078,-0.9662705063819885,-0.13139399886131287
5.72,0.18827994167804718,-0.1692388951778412,0.10292813926935196,-0.2114565074443817,-0.9559919834136963,-0.13846999406814575
5.74,0.22130216658115387,-0.19267402589321136,0.10399337112903595,-0.20730850100517273,-0.9503800272941589,-0.12504999339580536
5.76,0.22236739099025726,-0.1692388951778412,0.09760197252035141,-0.1999884992837906,-0.9494039416313171,-0.11870599538087845
5.78,0.1978670358657837,-0.1362166702747345,0.08694964647293091,-0.19315649569034576,-0.9457440376281738,-0.11943800002336502
5.8,0.16804051399230957,-0.10106398165225983,0.07310161739587784,-0.1912045031785965,-0.9616345167160034,-0.1172420009970665
5.82,0.1446053832769394,-0.052063263952732086,0.05286218971014023,-0.19925649464130402,-0.9635864496231079,-0.1142834946513176
5.84,0.10732222348451614,-0.026497671380639076,0.03901416063308716,-0.20194049179553986,-0.9657825231552124,-0.11529000103473663
5.86,0.06258244067430496,0.0033288532868027687,0.02729659713804722,-0.20974849164485931,-0.9706624746322632,-0.10867150127887726
5.88,0.03169068321585655,0.012915950268507004,0.02303566411137581,-0.2068205028772354,-0.9704185128211975,-0.10525550693273544
5.9,0.027429750189185143,0.012915950268507004,0.02516612969338894,-0.2063324898481369,-0.9684664607048035,-0.10183950513601303
5.92,0.04553871229290962,0.0011983871227130294,0.03262276202440262,-0.20706449449062347,-0.9609025120735168,-0.0950075015425682
5.94,0.0689738392829895,-0.023301972076296806,0.03901416063308716,-0.2051125019788742,-0.9628545045852661,-0.09695950150489807
5.96,0.09134373068809509,-0.059519894421100616,0.04434032365679741,-0.20438048243522644,-0.9596824645996094,-0.09866750240325928
5.98,0.11051792651414871,-0.07656362652778625,0.04327509179711342,-0.20316050946712494,-0.9609025120735168,-0.09744749963283539
6,0.1126483902335167,-0.08508548885583878,0.03901416063308716,-0.20901650190353394,-0.96236652135849,-0.09598349779844284
6.02,0.11051792651414871,-0.07549838721752167,0.03581846132874489,-0.21584850549697876,-0.9584320187568665,-0.09549549967050552
6.04,0.10199606418609619,-0.0712374597787857,0.02942706272006035,-0.20779651403427124,-0.9574559926986694,-0.09256749600172043
6.06,0.09986559301614761,-0.04993279650807381,0.02090519852936268,-0.20828449726104736,-0.9628545045852661,-0.0827770009636879
6.08,0.09773512929677963,-0.043541401624679565,0.02197043038904667,-0.21243250370025635,-0.96236652135849,-0.07448099553585052
6.1,0.08921326696872711,-0.040345702320337296,0.02623136341571808,-0.21633651852607727,-0.9626104831695557,-0.07301700115203857
6.12,0.08282186836004257,-0.043541401624679565,0.02729659713804722,-0.21831899881362915,-0.9628545045852661,-0.07301700115203857
6.14,0.08069140464067459,-0.04673709720373154,0.03688369318842888,-0.2302750051021576,-0.9760304689407349,-0.057126499712467194
6.16,0.08814803510904312,-0.052063263952732086,0.04007939249277115,-0.2302750051021576,-0.9760304689407349,-0.057126499712467194
6.18,0.09880036115646362,-0.061650361865758896,0.03688369318842888,-0.2273470014333725,-0.9738345146179199,-0.04858649894595146
6.2,0.10625699162483215,-0.06804175674915314,0.03688369318842888,-0.24101100862026215,-0.9628545045852661,-0.029280001297593117
6.22,0.11051792651414871,-0.06271559745073318,0.0454055592417717,-0.24592150747776031,-0.9645625352859497,-0.0287919994443655
6.24,0.1115831583738327,-0.05312849581241608,0.0454055592417717,-0.24592150747776031,-0.9645625352859497,-0.0287919994443655
6.26,0.10838746279478073,-0.044606633484363556,0.0454055592417717,-0.24933749437332153,-0.965538501739502,-0.020495999604463577
6.28,0.10306129604578018,-0.028628136962652206,0.03901416063308716,-0.24787351489067078,-0.9691985249519348,-0.012199999764561653
6.3,0.09666989743709564,-0.020106272771954536,0.03581846132874489,-0.24491499364376068,-0.9752985239028931,-0.011467999778687954
6.32,0.08814803510904312,-0.008388710208237171,0.03155753016471863,-0.24515901505947113,-0.9679784774780273,-0.006587999872863293
6.34,0.07749570161104202,-0.004127778112888336,0.03368799388408661,-0.2500694990158081,-0.9633424878120422,-0.006099999882280827
6.36,0.06577813625335693,0.00226362026296556,0.02942706272006035,-0.24567751586437225,-0.9633424878120422,-0.005581500008702278
6.38,0.06045197322964668,-0.0009320789249613881,0.02516612969338894,-0.24101100862026215,-0.9652945399284363,-0.0021654998417943716
6.4,0.05938674136996269,-0.001997311832383275,0.02090519852936268,-0.2429630160331726,-0.964074432849884,-0.001189500093460083
6.42,0.04979964345693588,-0.009453942999243736,0.01664426550269127,-0.2454030066728592,-0.9691985249519348,-0.0016775000840425491
6.44,0.04021254554390907,-0.012649642303586006,0.011318100616335869,-0.24787351489067078,-0.9694425463676453,-0.0058559998869895935
6.46,0.028494983911514282,-0.016910573467612267,0.011318100616335869,-0.24320700764656067,-0.9677344560623169,-0.0036295000463724136
6.48,0.017842652276158333,-0.016910573467612267,0.008122402243316174,-0.24616549909114838,-0.9645625352859497,0.0046664997935295105
6.5,0.013581721112132072,-0.023301972076296806,0.007057168986648321,-0.24149899184703827,-0.9552600383758545,0.0014945000875741243
6.52,-0.0033288532868027687,-0.029693370684981346,0.0027962366584688425,-0.24174298346042633,-0.95306396484375,-0.00411750003695488
6.54,-0.008655018173158169,-0.025432437658309937,0.000665770610794425,-0.24223099648952484,-0.9564799666404724,0.0005184999899938703
6.56,-0.020372580736875534,-0.026497671380639076,-0.0014646954368799925,-0.24467100203037262,-0.9559919834136963,-0.006587999872863293
6.58,-0.026763979345560074,-0.029693370684981346,-0.0014646954368799925,-0.24271899461746216,-0.9555040001869202,0.0002744999947026372
6.6,-0.029959678649902344,-0.026497671380639076,-0.006790860556066036,-0.24198700487613678,-0.9533079862594604,-0.00021349999587982893
6.62,-0.03209014609456062,-0.022236740216612816,-0.006790860556066036,-0.24689750373363495,-0.9596824645996094,-0.006831999868154526
6.64,-0.03209014609456062,-0.019041040912270546,-0.011051792651414871,-0.24689750373363495,-0.9596824645996094,-0.006831999868154526
6.66,-0.03209014609456062,-0.017975807189941406,-0.007856093347072601,-0.2510455250740051,-0.9635864496231079,0.005886499769985676
6.68,-0.029959678649902344,-0.017975807189941406,-0.012117025442421436,-0.2510455250740051,-0.9635864496231079,0.005886499769985676
6.7,-0.024633513763546944,-0.016910573467612267,-0.013182258233428001,-0.24933749437332153,-0.9628545045852661,0.006130500230938196
6.72,-0.036351077258586884,-0.008388710208237171,-0.011051792651414871,-0.25031349062919617,-0.9701744914054871,-0.0021654998417943716
6.74,-0.04274247586727142,-0.0009320789249613881,-0.008921326138079166,-0.2542175054550171,-0.9645625352859497,-0.004361500032246113
6.76,-0.04274247586727142,0.004394086077809334,-0.005725627299398184,-0.252997487783432,-0.9648065567016602,-0.007807999849319458
6.78,-0.050199106335639954,0.009720250964164734,-0.008921326138079166,-0.24689750373363495,-0.9596824645996094,-0.010003999806940556
6.8,-0.0555252730846405,0.013981183059513569,-0.013182258233428001,-0.24640949070453644,-0.9589504599571228,-0.010003999806940556
6.82,-0.061916667968034744,0.017176883295178413,-0.013182258233428001,-0.2483614981174469,-0.96236652135849,-0.01268799975514412
6.84,-0.06404713541269302,0.027829213067889214,-0.01744319126009941,-0.24491499364376068,-0.964318573474884,-0.01390800066292286
6.86,-0.07363422960042953,0.031024912372231483,-0.01637795753777027,-0.24762949347496033,-0.9684664607048035,-0.01268799975514412
6.88,-0.0778951644897461,0.036351077258586884,-0.01744319126009941,-0.25031349062919617,-0.9718824625015259,-0.015615999698638916
6.9,-0.08215609937906265,0.041677240282297134,-0.01637795753777027,-0.24762949347496033,-0.9716385006904602,-0.011223999783396721
6.92,-0.08535179495811462,0.03954677656292915,-0.01744319126009941,-0.24738550186157227,-0.9596824645996094,-0.014883999712765217
6.94,-0.09174319356679916,0.041677240282297134,-0.02276935614645481,-0.24003499746322632,-0.9555040001869202,-0.02513200044631958
6.96,-0.0981345921754837,0.044872939586639404,-0.0185084231197834,-0.2424750030040741,-0.9545280337333679,-0.024887999519705772
6.98,-0.10346075892448425,0.051264338195323944,-0.01744319126009941,-0.23979100584983826,-0.9616345167160034,-0.026840001344680786
7,-0.10665645450353622,0.05978620424866676,-0.01957365684211254,-0.23930299282073975,-0.9584320187568665,-0.034190502017736435
7.02,-0.10772168636322021,0.06830807030200958,-0.0238345880061388,-0.24101100862026215,-0.9674904942512512,-0.03858250007033348
7.04,-0.11198262125253677,0.07469946891069412,-0.03342168778181076,-0.23808300495147705,-0.9755424857139587,-0.04492649808526039
7.06,-0.12476541846990585,0.0778951644897461,-0.04300878196954727,-0.23100700974464417,-0.9726144671440125,-0.04517050087451935
7.08,-0.12796111404895782,0.07576470077037811,-0.05366111174225807,-0.22393099963665009,-0.961390495300293,-0.05688249692320824
7.1,-0.13648298382759094,0.066177599132061,-0.06431344151496887,-0.22002698481082916,-0.9628545045852661,-0.06130500137805939
7.12,-0.1418091505765915,0.06298190355300903,-0.0717700719833374,-0.21731248497962952,-0.9670025110244751,-0.07326100021600723
7.14,-0.14820054173469543,0.061916667968034744,-0.07390054315328598,-0.21292048692703247,-0.9774945378303528,-0.08619300276041031
7.16,-0.15352670848369598,0.054460037499666214,-0.06963960826396942,-0.21340849995613098,-0.982618510723114,-0.08643700182437897
7.18,-0.14713531732559204,0.048068638890981674,-0.06324820965528488,-0.21072448790073395,-0.9755424857139587,-0.09134750068187714
7.2,-0.1418091505765915,0.031024912372231483,-0.05366111174225807,-0.21243250370025635,-0.9701744914054871,-0.09378749877214432
7.22,-0.1396786868572235,0.021437814459204674,-0.05259587988257408,-0.20608849823474884,-0.9596824645996094,-0.09183549880981445
7.24,-0.13222205638885498,0.005459319334477186,-0.05153064802289009,-0.20291650295257568,-0.9630984663963318,-0.10818350315093994
7.26,-0.12476541846990585,0.005459319334477186,-0.04620448127388954,-0.20413649082183838,-0.9591944813728333,-0.09964349865913391
7.28,-0.11517832428216934,0.007589785382151604,-0.03661738336086273,-0.20535649359226227,-0.9533079862594604,-0.0991555005311966
7.3,-0.10772168636322021,0.0011983871227130294,-0.02916075475513935,-0.20877251029014587,-0.9626104831695557,-0.10720749944448471
7.32,-0.10133028775453568,0.005459319334477186,-0.03768261894583702,-0.20877251029014587,-0.9626104831695557,-0.10720749944448471
7.34,-0.0991998240351677,0.013981183059513569,-0.04300878196954727,-0.20120850205421448,-0.96236652135849,-0.10696350038051605
7.36,-0.10026505589485168,0.010785484686493874,-0.04620448127388954,-0.1953524947166443,-0.9535519480705261,-0.10989149659872055
7.38,-0.09706936031579971,0.009720250964164734,-0.04087831825017929,-0.19242450594902039,-0.948915958404541,-0.11184350401163101
7.4,-0.09280842542648315,0.015046416781842709,-0.03555215150117874,-0.19852450489997864,-0.955016016960144,-0.11111149191856384
7.42,-0.08854749798774719,0.013981183059513569,-0.03448691964149475,-0.19974449276924133,-0.9616345167160034,-0.11675400286912918
7.44,-0.08215609937906265,0.017176883295178413,-0.02809552103281021,-0.19950050115585327,-0.9581879377365112,-0.11748600006103516
7.46,-0.06937330216169357,0.013981183059513569,-0.02916075475513935,-0.19925649464130402,-0.9609025120735168,-0.1142834946513176
7.48,-0.06830807030200958,0.010785484686493874,-0.0238345880061388,-0.19828049838542938,-0.9528200030326843,-0.11675400286912918
7.5,-0.05978620424866676,0.013981183059513569,-0.02596505545079708,-0.19632850587368011,-0.9569680094718933,-0.11675400286912918
7.52,-0.04593817517161369,0.015046416781842709,-0.02489982172846794,-0.19632850587368011,-0.9569680094718933,-0.11675400286912918
7.54,-0.040612008422613144,0.011850717477500439,-0.02489982172846794,-0.19510850310325623,-0.9621224999427795,-0.1189500018954277
7.56,-0.037416309118270874,0.006524552125483751,-0.02703028731048107,-0.19144849479198456,-0.957211971282959,-0.11577799916267395
7.58,-0.029959678649902344,0.010785484686493874,-0.02703028731048107,-0.18946599960327148,-0.9552600383758545,-0.11919399350881577
7.6,-0.031024912372231483,0.006524552125483751,-0.03022598661482334,-0.1865379959344864,-0.9579439759254456,-0.120169997215271
7.62,-0.031024912372231483,0.007589785382151604,-0.02489982172846794,-0.18507400155067444,-0.9591944813728333,-0.12065799534320831
7.64,-0.029959678649902344,0.0011983871227130294,-0.01957365684211254,-0.1870260089635849,-0.9569680094718933,-0.12504999339580536
7.66,-0.024633513763546944,0.00226362026296556,-0.01744319126009941,-0.18434199690818787,-0.9584320187568665,-0.12407399713993073
7.68,-0.018242115154862404,0.0033288532868027687,-0.01637795753777027,-0.18971000611782074,-0.9567239880561829,-0.12041400372982025
7.7,-0.015046416781842709,-0.0009320789249613881,-0.014247491955757141,-0.1912045031785965,-0.96236652135849,-0.12456199526786804
7.72,-0.015046416781842709,-0.0030625448562204838,-0.01744319126009941,-0.18727000057697296,-0.9635864496231079,-0.12529399991035461
7.74,-0.010785484686493874,-0.006258244160562754,-0.0185084231197834,-0.18458600342273712,-0.9635864496231079,-0.12261000275611877
7.76,-0.005459319334477186,-0.001997311832383275,-0.014247491955757141,-0.18751400709152222,-0.960170567035675,-0.12065799534320831
7.78,-0.010785484686493874,-0.001997311832383275,-0.014247491955757141,-0.18385399878025055,-0.9709064960479736,-0.1248060017824173
7.8,-0.011850717477500439,-0.005193010903894901,-0.013182258233428001,-0.1899539977312088,-0.960170567035675,-0.12456199526786804
7.82,-0.022503048181533813,0.0011983871227130294,-0.004660394508391619,-0.18849000334739685,-0.964074432849884,-0.12846601009368896
7.84,-0.025698747485876083,-0.0030625448562204838,-0.00359516148455441,-0.1929125040769577,-0.966514527797699,-0.12968599796295166
7.86,-0.021437814459204674,-0.008388710208237171,-0.008921326138079166,-0.18849000334739685,-0.964074432849884,-0.1265140026807785
7.88,-0.019307348877191544,-0.008388710208237171,-0.006790860556066036,-0.18727000057697296,-0.9567239880561829,-0.1306620091199875
7.9,-0.020372580736875534,-0.006258244160562754,-0.0025299284607172012,-0.19068600237369537,-0.9591944813728333,-0.13188199698925018
7.92,-0.021437814459204674,-0.007323476951569319,-0.0014646954368799925,-0.19388850033283234,-0.9596824645996094,-0.1311500072479248
7.94,-0.018242115154862404,-0.010519175790250301,0.0038614696823060513,-0.19266849756240845,-0.96236652135849,-0.12993000447750092
7.96,-0.013981183059513569,-0.010519175790250301,-0.0014646954368799925,-0.19315649569034576,-0.964318573474884,-0.13163799047470093
7.98,-0.010785484686493874,-0.013714875094592571,0.004926702938973904,-0.18849000334739685,-0.964074432849884,-0.13163799047470093
8,-0.008655018173158169,-0.016910573467612267,0.0038614696823060513,-0.18604999780654907,-0.96236652135849,-0.1289539933204651
8.02,-0.004394086077809334,-0.011584409512579441,0.009187635034322739,-0.19657249748706818,-0.9540400505065918,-0.12529399991035461
8.04,0.0018641578499227762,-0.010519175790250301,0.01770949922502041,-0.19608449935913086,-0.9606585502624512,-0.12797801196575165
8.06,0.0018641578499227762,-0.010519175790250301,0.015579032711684704,-0.19315649569034576,-0.9670025110244751,-0.12846601009368896
8.08,0.010386021807789803,-0.011584409512579441,0.011318100616335869,-0.19437649846076965,-0.9606585502624512,-0.12626999616622925
8.1,0.012516488321125507,-0.010519175790250301,0.011318100616335869,-0.19608449935913086,-0.9535519480705261,-0.1218779981136322
8.12,0.019973119720816612,-0.010519175790250301,0.015579032711684704,-0.19193650782108307,-0.9567239880561829,-0.13041800260543823
8.14,0.021038351580500603,-0.019041040912270546,0.01664426550269127,-0.19218049943447113,-0.9569680094718933,-0.12578199803829193
8.16,0.025299284607172012,-0.014780107885599136,0.014513799920678139,-0.19388850033283234,-0.957211971282959,-0.12846601009368896
8.18,0.027429750189185143,-0.012649642303586006,0.01664426550269127,-0.19632850587368011,-0.961390495300293,-0.1277339905500412
8.2,0.030625449493527412,-0.012649642303586006,0.02410089783370495,-0.19950050115585327,-0.9618784785270691,-0.1248060017824173
8.22,0.03488638252019882,-0.013714875094592571,0.01877473294734955,-0.1912045031785965,-0.959926426410675,-0.12382999807596207
8.24,0.03914731368422508,-0.014780107885599136,0.01877473294734955,-0.19364449381828308,-0.9621224999427795,-0.12285400182008743
8.26,0.03914731368422508,-0.011584409512579441,0.01877473294734955,-0.2021844983100891,-0.9594384431838989,-0.12334199994802475
8.28,0.04340824484825134,-0.015845341607928276,0.02516612969338894,-0.19779250025749207,-0.9609025120735168,-0.12236599624156952
8.3,0.04660394415259361,-0.013714875094592571,0.02729659713804722,-0.2021844983100891,-0.9606585502624512,-0.12212200462818146
8.32,0.05619104206562042,-0.021171506494283676,0.02516612969338894,-0.19486449658870697,-0.9604145288467407,-0.11992600560188293
8.34,0.06471290439367294,-0.022236740216612816,0.02516612969338894,-0.1987685114145279,-0.9589504599571228,-0.11919399350881577
8.36,0.06577813625335693,-0.022236740216612816,0.02303566411137581,-0.20072050392627716,-0.9589504599571228,-0.11992600560188293
8.38,0.0689738392829895,-0.022236740216612816,0.02516612969338894,-0.2004764974117279,-0.9569680094718933,-0.11650999635457993
8.4,0.07110430300235748,-0.023301972076296806,0.02623136341571808,-0.20535649359226227,-0.9581879377365112,-0.11379549652338028
8.42,0.07003907114267349,-0.025432437658309937,0.03368799388408661,-0.20120850205421448,-0.9616345167160034,-0.11208749562501907
8.44,0.07749570161104202,-0.029693370684981346,0.03794892504811287,-0.20267249643802643,-0.9589504599571228,-0.11086750030517578
8.46,0.07962616533041,-0.025432437658309937,0.04327509179711342,-0.20194049179553986,-0.9569680094718933,-0.11626599729061127
8.48,0.08708280324935913,-0.021171506494283676,0.0454055592417717,-0.20120850205421448,-0.9559919834136963,-0.10818350315093994
8.5,0.09560466557741165,-0.022236740216612816,0.04966649040579796,-0.20389249920845032,-0.957211971282959,-0.10403549671173096
8.52,0.10519175976514816,-0.028628136962652206,0.05073172226548195,-0.2021844983100891,-0.955016016960144,-0.11086750030517578
8.54,0.11584409326314926,-0.029693370684981346,0.05179695412516594,-0.20364850759506226,-0.957211971282959,-0.10476750135421753
8.56,0.11690932512283325,-0.031823836266994476,0.05392742156982422,-0.2063324898481369,-0.957211971282959,-0.09817949682474136
8.58,0.12010502070188522,-0.031823836266994476,0.05925358831882477,-0.20706449449062347,-0.9618784785270691,-0.0979354977607727
8.6,0.12436595559120178,-0.03288906812667847,0.06138405203819275,-0.20974849164485931,-0.9567239880561829,-0.09451950341463089
8.62,0.13821399211883545,-0.038215234875679016,0.0560578890144825,-0.20413649082183838,-0.9584320187568665,-0.09256749600172043
8.64,0.13821399211883545,-0.045671865344047546,0.06031882017850876,-0.21121250092983246,-0.9677344560623169,-0.08793149888515472
8.66,0.1318225860595703,-0.042476166039705276,0.06031882017850876,-0.21316450834274292,-0.9667584896087646,-0.08692499995231628
8.68,0.12969212234020233,-0.042476166039705276,0.05818835273385048,-0.21536050736904144,-0.964074432849884,-0.08692499995231628
8.7,0.12436595559120178,-0.045671865344047546,0.06457975506782532,-0.22295500338077545,-0.9652945399284363,-0.08180100470781326
8.72,0.12117026001214981,-0.04673709720373154,0.06138405203819275,-0.21706849336624146,-0.9645625352859497,-0.07082100212574005
8.74,0.12330072373151779,-0.045671865344047546,0.05925358831882477,-0.22002698481082916,-0.9591944813728333,-0.06667300313711166
8.76,0.12117026001214981,-0.03928046673536301,0.05073172226548195,-0.21929500997066498,-0.964074432849884,-0.060328997671604156
8.78,0.11584409326314926,-0.037150003015995026,0.05392742156982422,-0.22759099304676056,-0.9694425463676453,-0.05761449784040451
8.8,0.10519175976514816,-0.03288906812667847,0.05712312087416649,-0.23515498638153076,-0.9679784774780273,-0.05615050345659256
8.82,0.10625699162483215,-0.029693370684981346,0.05499265342950821,-0.23295898735523224,-0.9652945399284363,-0.045658502727746964
8.84,0.11051792651414871,-0.025432437658309937,0.05286218971014023,-0.2336909919977188,-0.9648065567016602,-0.0437064990401268
8.86,0.11371362209320068,-0.022236740216612816,0.05179695412516594,-0.22929899394512177,-0.964074432849884,-0.035654500126838684
8.88,0.10625699162483215,-0.016910573467612267,0.05179695412516594,-0.23271499574184418,-0.9638304710388184,-0.031964000314474106
8.9,0.10519175976514816,-0.009453942999243736,0.05179695412516594,-0.23905900120735168,-0.961390495300293,-0.027083998546004295
8.92,0.10412652790546417,-0.010519175790250301,0.0454055592417717,-0.24027900397777557,-0.9616345167160034,-0.021959999576210976
8.94,0.10625699162483215,-0.004127778112888336,0.0454055592417717,-0.24198700487613678,-0.9587064981460571,-0.015371999703347683
8.96,0.09666989743709564,-0.005193010903894901,0.0454055592417717,-0.2412550002336502,-0.9638304710388184,-0.012443999759852886
8.98,0.09134373068809509,0.0001331541279796511,0.0454055592417717,-0.24762949347496033,-0.9721264839172363,-0.014640000648796558
9,0.08708280324935913,0.0033288532868027687,0.04114462435245514,-0.2441830039024353,-0.9633424878120422,-0.007564000319689512
9.02,0.07856093347072601,0.005459319334477186,0.03794892504811287,-0.24345099925994873,-0.965538501739502,-0.005337500013411045
9.04,0.07003907114267349,0.004394086077809334,0.0347532257437706,-0.24811750650405884,-0.959926426410675,-0.003385499818250537
9.06,0.06045197322964668,0.0011983871227130294,0.03688369318842888,-0.24811750650405884,-0.959926426410675,-0.003385499818250537
9.08,0.06258244067430496,-0.0009320789249613881,0.0347532257437706,-0.2488495111465454,-0.9628545045852661,0.0029585000593215227
9.1,0.05193011090159416,0.00226362026296556,0.03262276202440262,-0.2488495111465454,-0.9628545045852661,0.0029585000593215227
9.12,0.04979964345693588,0.005459319334477186,0.03049229457974434,-0.2495815008878708,-0.9677344560623169,0.00783849973231554
9.14,0.04234301298856735,0.004394086077809334,0.02942706272006035,-0.24640949070453644,-0.9679784774780273,0.0019825000781565905
9.16,0.04340824484825134,0.00226362026296556,0.02623136341571808,-0.24787351489067078,-0.9657825231552124,0.007350499741733074
9.18,0.04340824484825134,-0.001997311832383275,0.02090519852936268,-0.24592150747776031,-0.9609025120735168,0.003446500049903989
9.2,0.030625449493527412,0.0011983871227130294,0.01877473294734955,-0.2512895166873932,-0.9518439769744873,0.0036904998123645782
9.22,0.024234050884842873,0.0001331541279796511,0.01664426550269127,-0.2512895166873932,-0.9555040001869202,0.004178499802947044
9.24,0.016777420416474342,0.00226362026296556,0.01877473294734955,-0.2466535121202469,-0.9581879377365112,0.008082499727606773
9.26,0.009320789016783237,0.005459319334477186,0.014513799920678139,-0.2508015036582947,-0.9635864496231079,0.005154499784111977
9.28,0.0061250897124409676,0.005459319334477186,0.013448567129671574,-0.2508015036582947,-0.9626104831695557,0.0012504999758675694
9.3,-0.004394086077809334,0.005459319334477186,0.012383334338665009,-0.25031349062919617,-0.9630984663963318,0.0029585000593215227
9.32,-0.009720250964164734,0.008655018173158169,0.012383334338665009,-0.25153350830078125,-0.9609025120735168,0.004178499802947044
9.34,-0.017176883295178413,0.010785484686493874,0.007057168986648321,-0.2517774999141693,-0.9574559926986694,0.0019825000781565905
9.36,-0.017176883295178413,0.009720250964164734,0.004926702938973904,-0.25153350830078125,-0.9576999545097351,0.006374500226229429
9.38,-0.017176883295178413,0.005459319334477186,0.004926702938973904,-0.2537294924259186,-0.964318573474884,0.00783849973231554
9.4,-0.015046416781842709,0.008655018173158169,-0.00359516148455441,-0.2522655129432678,-0.959926426410675,0.005886499769985676
9.42,-0.020372580736875534,0.0011983871227130294,-0.0025299284607172012,-0.25202152132987976,-0.9628545045852661,0.002470499835908413
9.44,-0.029959678649902344,0.005459319334477186,-0.0025299284607172012,-0.252997487783432,-0.961390495300293,0.006130500230938196
9.46,-0.03209014609456062,0.0011983871227130294,-0.0014646954368799925,-0.2551935017108917,-0.964318573474884,0.0010064999805763364
9.48,-0.036351077258586884,0.00226362026296556,-0.00359516148455441,-0.25616949796676636,-0.9562360048294067,0.003934500273317099
9.5,-0.036351077258586884,0.0011983871227130294,-0.005725627299398184,-0.257145494222641,-0.965538501739502,-0.001189500093460083
9.52,-0.044872939586639404,-0.004127778112888336,-0.009986559860408306,-0.2510455250740051,-0.9567239880561829,-0.005093500018119812
9.54,-0.05232957378029823,-0.005193010903894901,-0.009986559860408306,-0.25275349617004395,-0.9587064981460571,-0.0026535000652074814
9.56,-0.058720968663692474,0.0011983871227130294,-0.011051792651414871,-0.2554375231266022,-0.9648065567016602,-0.0031415000557899475
9.58,-0.06511236727237701,0.0011983871227130294,-0.008921326138079166,-0.25787749886512756,-0.9621224999427795,-0.003385499818250537
9.6,-0.06511236727237701,-0.006258244160562754,-0.005725627299398184,-0.25690150260925293,-0.9650505185127258,-0.004849500022828579
9.62,-0.06404713541269302,-0.007323476951569319,-0.013182258233428001,-0.25397348403930664,-0.959926426410675,-0.00878399983048439
9.64,-0.06404713541269302,-0.005193010903894901,-0.013182258233428001,-0.25202152132987976,-0.959926426410675,-0.009516000747680664
9.66,-0.07150376588106155,-0.005193010903894901,-0.0185084231197834,-0.2517774999141693,-0.9584320187568665,-0.015371999703347683
9.68,-0.07576470077037811,-0.0030625448562204838,-0.01957365684211254,-0.25665751099586487,-0.9581879377365112,-0.012931999750435352
9.7,-0.0768299326300621,0.0011983871227130294,-0.02489982172846794,-0.2564135193824768,-0.9606585502624512,-0.015128000639379025
9.72,-0.08002562820911407,0.005459319334477186,-0.02703028731048107,-0.2547054886817932,-0.9628545045852661,-0.013420000672340393
9.74,-0.08002562820911407,0.013981183059513569,-0.03129122033715248,-0.25397348403930664,-0.9535519480705261,-0.019276000559329987
9.76,-0.08002562820911407,0.017176883295178413,-0.02703028731048107,-0.2554375231266022,-0.9562360048294067,-0.015615999698638916
9.78,-0.0778951644897461,0.024633513763546944,-0.02916075475513935,-0.25397348403930664,-0.9635864496231079,-0.017323998734354973
9.8,-0.0778951644897461,0.034220609813928604,-0.02809552103281021,-0.2525095045566559,-0.9633424878120422,-0.02391200140118599
9.82,-0.07896039634943008,0.03954677656292915,-0.02703028731048107,-0.25324150919914246,-0.9618784785270691,-0.02757200039923191
9.84,-0.08641702681779861,0.05659050494432449,-0.03342168778181076,-0.2588534951210022,-0.9648065567016602,-0.03760650008916855
9.86,-0.08002562820911407,0.06298190355300903,-0.03022598661482334,-0.24909350275993347,-0.9589504599571228,-0.03394649922847748
9.88,-0.0778951644897461,0.07150376588106155,-0.03874785080552101,-0.24491499364376068,-0.9555040001869202,-0.03589850291609764
9.9,-0.0768299326300621,0.08002562820911407,-0.04087831825017929,-0.2395469844341278,-0.9574559926986694,-0.040534500032663345
9.92,-0.07469946891069412,0.08109086751937866,-0.04940018057823181,-0.24052299559116364,-0.9591944813728333,-0.050538498908281326
9.94,-0.08322133123874664,0.08854749798774719,-0.04833494871854782,-0.23857101798057556,-0.9662705063819885,-0.04517050087451935
9.96,-0.09067796170711517,0.09174319356679916,-0.05792204663157463,-0.2314949929714203,-0.9628545045852661,-0.050538498908281326
9.98,-0.10559122264385223,0.08641702681779861,-0.05792204663157463,-0.2314949929714203,-0.9628545045852661,-0.050538498908281326
10,-0.11517832428216934,0.08641702681779861,-0.05898727849125862,-0.2285669893026352,-0.9616345167160034,-0.0630130022764206
10.02,-0.1194392517209053,0.08535179495811462,-0.05472634732723236,-0.22515100240707397,-0.968222439289093,-0.07301700115203857
10.04,-0.11304785311222076,0.07896039634943008,-0.05472634732723236,-0.22246700525283813,-0.9684664607048035,-0.07350499927997589
10.06,-0.1194392517209053,0.061916667968034744,-0.06005251035094261,-0.21633651852607727,-0.9677344560623169,-0.07765299826860428
10.08,-0.11837401986122131,0.04913387447595596,-0.06324820965528488,-0.2143845111131668,-0.9645625352859497,-0.08692499995231628
10.1,-0.11304785311222076,0.03848154470324516,-0.06218297779560089,-0.21658051013946533,-0.964074432849884,-0.08546099811792374
10.12,-0.1087869256734848,0.027829213067889214,-0.0611177459359169,-0.21609249711036682,-0.9648065567016602,-0.08716899901628494
10.14,-0.10665645450353622,0.020372580736875534,-0.05366111174225807,-0.21194449067115784,-0.9635864496231079,-0.09573949873447418
10.16,-0.10133028775453568,0.005459319334477186,-0.04940018057823181,-0.21194449067115784,-0.9635864496231079,-0.09573949873447418
10.18,-0.09706936031579971,0.005459319334477186,-0.04513924941420555,-0.2075524926185608,-0.9576999545097351,-0.09378749877214432
10.2,-0.09706936031579971,0.0001331541279796511,-0.039813082665205,-0.2109685093164444,-0.9594384431838989,-0.09891150146722794
10.22,-0.09067796170711517,-0.004127778112888336,-0.03874785080552101,-0.2092605084180832,-0.9609025120735168,-0.08793149888515472
10.24,-0.08641702681779861,-0.007323476951569319,-0.03661738336086273,-0.20706449449062347,-0.9581879377365112,-0.09110350161790848
10.26,-0.07256899774074554,-0.010519175790250301,-0.03555215150117874,-0.20706449449062347,-0.9581879377365112,-0.09110350161790848
10.28,-0.06937330216169357,-0.012649642303586006,-0.03768261894583702,-0.20242848992347717,-0.9559919834136963,-0.09744749963283539
10.3,-0.06298190355300903,-0.013714875094592571,-0.039813082665205,-0.20242848992347717,-0.9559919834136963,-0.09744749963283539
10.32,-0.054460037499666214,-0.011584409512579441,-0.03768261894583702,-0.20364850759506226,-0.9564799666404724,-0.09647150337696075
10.34,-0.053394805639982224,-0.008388710208237171,-0.03235645219683647,-0.20413649082183838,-0.959926426410675,-0.1008635014295578
10.36,-0.04593817517161369,-0.004127778112888336,-0.03129122033715248,-0.20657648146152496,-0.9606585502624512,-0.09744749963283539
10.38,-0.044872939586639404,-0.001997311832383275,-0.02489982172846794,-0.2051125019788742,-0.9604145288467407,-0.10354749113321304
10.4,-0.040612008422613144,0.004394086077809334,-0.03022598661482334,-0.20291650295257568,-0.9609025120735168,-0.10183950513601303
10.42,-0.043807707726955414,0.004394086077809334,-0.03235645219683647,-0.19437649846076965,-0.9591944813728333,-0.10989149659872055
10.44,-0.048068638890981674,0.012915950268507004,-0.03342168778181076,-0.19437649846076965,-0.9591944813728333,-0.10989149659872055
10.46,-0.0555252730846405,0.016111649572849274,-0.03129122033715248,-0.19510850310325623,-0.9672464728355408,-0.1113554984331131
10.48,-0.054460037499666214,0.018242115154862404,-0.02703028731048107,-0.19901250302791595,-0.9616345167160034,-0.11403950303792953
10.5,-0.047003407031297684,0.019307348877191544,-0.02170412242412567,-0.19730450212955475,-0.9650505185127258,-0.11773000657558441
10.52,-0.044872939586639404,0.018242115154862404,-0.02170412242412567,-0.19437649846076965,-0.9609025120735168,-0.11870599538087845
10.54,-0.03954677656292915,0.015046416781842709,-0.0238345880061388,-0.19803649187088013,-0.9611465334892273,-0.11403950303792953
10.56,-0.036351077258586884,0.016111649572849274,-0.02809552103281021,-0.19632850587368011,-0.9589504599571228,-0.11086750030517578
10.58,-0.03848154470324516,0.020372580736875534,-0.02596505545079708,-0.19437649846076965,-0.9596824645996094,-0.1113554984331131
10.6,-0.036351077258586884,0.019307348877191544,-0.02916075475513935,-0.1958404928445816,-0.9618784785270691,-0.11626599729061127
10.62,-0.03848154470324516,0.021437814459204674,-0.03448691964149475,-0.1941325068473816,-0.9621224999427795,-0.11184350401163101
10.64,-0.044872939586639404,0.025698747485876083,-0.03768261894583702,-0.19559650123119354,-0.959926426410675,-0.11968199908733368
10.66,-0.044872939586639404,0.017176883295178413,-0.04087831825017929,-0.1916925013065338,-0.965538501739502,-0.11943800002336502
10.68,-0.048068638890981674,0.023568280041217804,-0.04087831825017929,-0.18946599960327148,-0.9618784785270691,-0.11675400286912918
10.7,-0.043807707726955414,0.015046416781842709,-0.04087831825017929,-0.19218049943447113,-0.9657825231552124,-0.1189500018954277
10.72,-0.043807707726955414,0.019307348877191544,-0.039813082665205,-0.19193650782108307,-0.9670025110244751,-0.11821800470352173
10.74,-0.03954677656292915,0.011850717477500439,-0.03768261894583702,-0.18922200798988342,-0.9604145288467407,-0.11919399350881577
10.76,-0.037416309118270874,0.008655018173158169,-0.03235645219683647,-0.18507400155067444,-0.9633424878120422,-0.11968199908733368
10.78,-0.037416309118270874,0.007589785382151604,-0.02809552103281021,-0.1899539977312088,-0.9621224999427795,-0.11870599538087845
10.8,-0.037416309118270874,0.00226362026296556,-0.03129122033715248,-0.18751400709152222,-0.9621224999427795,-0.11992600560188293
10.82,-0.031024912372231483,0.006524552125483751,-0.03022598661482334,-0.18897800147533417,-0.9630984663963318,-0.11748600006103516
10.84,-0.034220609813928604,0.007589785382151604,-0.03448691964149475,-0.18849000334739685,-0.9626104831695557,-0.12138999253511429
10.86,-0.036351077258586884,0.015046416781842709,-0.03661738336086273,-0.19092999398708344,-0.960170567035675,-0.1248060017824173
10.88,-0.034220609813928604,0.017176883295178413,-0.04087831825017929,-0.18336600065231323,-0.9584320187568665,-0.11870599538087845
10.9,-0.034220609813928604,0.022503048181533813,-0.04513924941420555,-0.1853180080652237,-0.9579439759254456,-0.11992600560188293
10.92,-0.031024912372231483,0.028894444927573204,-0.04620448127388954,-0.1853180080652237,-0.9579439759254456,-0.11992600560188293
10.94,-0.028894444927573204,0.024633513763546944,-0.04194355010986328,-0.1870260089635849,-0.9630984663963318,-0.13212600350379944
10.96,-0.023568280041217804,0.015046416781842709,-0.03448691964149475,-0.17921799421310425,-0.9679784774780273,-0.12846601009368896
10.98,-0.015046416781842709,0.011850717477500439,-0.02916075475513935,-0.17921799421310425,-0.9679784774780273,-0.12846601009368896
11,-0.019307348877191544,0.011850717477500439,-0.01957365684211254,-0.17336200177669525,-0.9657825231552124,-0.12700200080871582
11.02,-0.020372580736875534,0.009720250964164734,-0.01957365684211254,-0.18263401091098785,-0.9650505185127258,-0.12700200080871582
11.04,-0.024633513763546944,0.010785484686493874,-0.01637795753777027,-0.18263401091098785,-0.9650505185127258,-0.12700200080871582
11.06,-0.024633513763546944,0.0033288532868027687,-0.01957365684211254,-0.17555800080299377,-0.9662705063819885,-0.12261000275611877
11.08,-0.022503048181533813,0.0001331541279796511,-0.01744319126009941,-0.17507000267505646,-0.9618784785270691,-0.12797801196575165
11.1,-0.023568280041217804,-0.0009320789249613881,-0.01744319126009941,-0.17726600170135498,-0.965538501739502,-0.12968599796295166
11.12,-0.023568280041217804,0.00226362026296556,-0.015312724746763706,-0.17726600170135498,-0.9618784785270691,-0.13041800260543823
11.14,-0.026763979345560074,0.004394086077809334,-0.015312724746763706,-0.18019400537014008,-0.9621224999427795,-0.123586006462574
11.16,-0.018242115154862404,0.0001331541279796511,-0.009986559860408306,-0.1789740025997162,-0.9611465334892273,-0.12334199994802475
11.18,-0.018242115154862404,-0.005193010903894901,-0.011051792651414871,-0.173117995262146,-0.9635864496231079,-0.13090600073337555
11.2,-0.016111649572849274,-0.009453942999243736,-0.009986559860408306,-0.17799799144268036,-0.9606585502624512,-0.1289539933204651
11.22,-0.018242115154862404,-0.0030625448562204838,-0.008921326138079166,-0.17531399428844452,-0.9660264849662781,-0.12675799429416656
11.24,-0.023568280041217804,-0.004127778112888336,-0.006790860556066036,-0.17994999885559082,-0.9606585502624512,-0.12553799152374268
11.26,-0.023568280041217804,-0.006258244160562754,-0.006790860556066036,-0.1782420128583908,-0.9628545045852661,-0.13017401099205017
11.28,-0.022503048181533813,-0.0009320789249613881,-0.0025299284607172012,-0.18336600065231323,-0.9652945399284363,-0.12700200080871582
11.3,-0.019307348877191544,-0.0009320789249613881,0.0017310036346316338,-0.1782420128583908,-0.9618784785270691,-0.1306620091199875
11.32,-0.017176883295178413,-0.0009320789249613881,0.0027962366584688425,-0.18141399323940277,-0.9648065567016602,-0.12846601009368896
11.34,-0.016111649572849274,-0.001997311832383275,0.0027962366584688425,-0.1794620007276535,-0.9618784785270691,-0.13090600073337555
11.36,-0.010785484686493874,0.00226362026296556,0.0027962366584688425,-0.1765339970588684,-0.9579439759254456,-0.12700200080871582
11.38,-0.015046416781842709,0.004394086077809334,0.005991935729980469,-0.18043801188468933,-0.9648065567016602,-0.12919799983501434
11.4,-0.012915950268507004,0.007589785382151604,0.007057168986648321,-0.18043801188468933,-0.9648065567016602,-0.12919799983501434
11.42,-0.010785484686493874,0.008655018173158169,0.007057168986648321,-0.1811700016260147,-0.9630984663963318,-0.12797801196575165
11.44,-0.004394086077809334,0.012915950268507004,0.007057168986648321,-0.17629000544548035,-0.9611465334892273,-0.12407399713993073
11.46,-0.004394086077809334,0.010785484686493874,0.005991935729980469,-0.17629000544548035,-0.9611465334892273,-0.12407399713993073
11.48,-0.007589785382151604,0.010785484686493874,0.009187635034322739,-0.18165799975395203,-0.9660264849662781,-0.12724599242210388
11.5,-0.0011983871227130294,0.012915950268507004,0.005991935729980469,-0.1765339970588684,-0.9650505185127258,-0.1218779981136322
11.52,-0.0001331541279796511,0.012915950268507004,0.008122402243316174,-0.18165799975395203,-0.9660264849662781,-0.12382999807596207
11.54,0.00399462366476655,0.010785484686493874,0.0017310036346316338,-0.1748259961605072,-0.9672464728355408,-0.12968599796295166
11.56,0.0061250897124409676,0.015046416781842709,0.004926702938973904,-0.1760459989309311,-0.9628545045852661,-0.1323700100183487
11.58,0.0018641578499227762,0.015046416781842709,0.007057168986648321,-0.1789740025997162,-0.964074432849884,-0.13017401099205017
11.6,-0.0011983871227130294,0.019307348877191544,0.005991935729980469,-0.1811700016260147,-0.9679784774780273,-0.12993000447750092
11.62,0.0018641578499227762,0.020372580736875534,0.008122402243316174,-0.1819019913673401,-0.9674904942512512,-0.13090600073337555
11.64,-0.0011983871227130294,0.018242115154862404,0.007057168986648321,-0.17970599234104156,-0.964074432849884,-0.13651800155639648
11.66,0.002929390873759985,0.019307348877191544,0.005991935729980469,-0.17994999885559082,-0.9630984663963318,-0.1289539933204651
11.68,0.002929390873759985,0.016111649572849274,0.007057168986648321,-0.1789740025997162,-0.9609025120735168,-0.13505400717258453
11.7,-0.0001331541279796511,0.018242115154862404,0.0027962366584688425,-0.1760459989309311,-0.965538501739502,-0.12846601009368896
11.72,-0.0033288532868027687,0.019307348877191544,0.0027962366584688425,-0.17458200454711914,-0.9645625352859497,-0.13017401099205017
11.74,-0.0011983871227130294,0.018242115154862404,0.0038614696823060513,-0.1777539998292923,-0.964074432849884,-0.13261400163173676
11.76,-0.0011983871227130294,0.010785484686493874,0.000665770610794425,-0.17799799144268036,-0.9657825231552124,-0.13334600627422333
11.78,-0.0001331541279796511,0.008655018173158169,0.0027962366584688425,-0.17531399428844452,-0.9633424878120422,-0.13334600627422333
11.8,-0.0011983871227130294,0.006524552125483751,-0.0025299284607172012,-0.1718980073928833,-0.960170567035675,-0.1335899978876114
11.82,-0.0001331541279796511,0.004394086077809334,0.0027962366584688425,-0.17750999331474304,-0.9611465334892273,-0.13163799047470093
11.84,-0.007589785382151604,0.008655018173158169,0.000665770610794425,-0.1765339970588684,-0.9621224999427795,-0.13798199594020844
11.86,-0.005459319334477186,0.005459319334477186,0.007057168986648321,-0.18092601001262665,-0.9684664607048035,-0.13895800709724426
11.88,-0.0033288532868027687,0.004394086077809334,0.0027962366584688425,-0.1782420128583908,-0.9648065567016602,-0.13944600522518158
11.9,-0.008655018173158169,0.00226362026296556,0.000665770610794425,-0.17116598784923553,-0.9574559926986694,-0.13310199975967407
11.92,-0.00226362026296556,0.00226362026296556,-0.0025299284607172012,-0.17677800357341766,-0.96236652135849,-0.132858008146286
11.94,-0.00226362026296556,-0.0009320789249613881,-0.0003994623839389533,-0.17872999608516693,-0.9674904942512512,-0.1323700100183487
11.96,-0.006524552125483751,-0.0009320789249613881,0.0027962366584688425,-0.17702199518680573,-0.9638304710388184,-0.13212600350379944
11.98,-0.007589785382151604,-0.0030625448562204838,0.008122402243316174,-0.1760459989309311,-0.965538501739502,-0.13603000342845917
12,0.002929390873759985,-0.004127778112888336,0.0027962366584688425,-0.1765339970588684,-0.9618784785270691,-0.1323700100183487
12.02,-0.0011983871227130294,-0.004127778112888336,0.007057168986648321,-0.17531399428844452,-0.9581879377365112,-0.1335899978876114
12.04,-0.006524552125483751,-0.0009320789249613881,0.0027962366584688425,-0.17531399428844452,-0.9581879377365112,-0.1335899978876114
12.06,-0.00226362026296556,0.00226362026296556,0.004926702938973904,-0.17580199241638184,-0.964074432849884,-0.132858008146286
12.08,-0.00226362026296556,-0.0009320789249613881,0.007057168986648321,-0.17921799421310425,-0.964318573474884,-0.13603000342845917
12.1,-0.0011983871227130294,-0.0030625448562204838,0.007057168986648321,-0.17629000544548035,-0.9633424878120422,-0.13090600073337555
12.12,0.0018641578499227762,-0.006258244160562754,0.0038614696823060513,-0.17848600447177887,-0.9611465334892273,-0.12724599242210388
12.14,0.00719032296910882,-0.0030625448562204838,0.005991935729980469,-0.17409400641918182,-0.959926426410675,-0.13481000065803528
12.16,0.008255556225776672,-0.008388710208237171,0.004926702938973904,-0.17970599234104156,-0.9652945399284363,-0.13212600350379944
12.18,0.0061250897124409676,-0.005193010903894901,0.007057168986648321,-0.17848600447177887,-0.9660264849662781,-0.13041800260543823
12.2,0.008255556225776672,-0.011584409512579441,0.007057168986648321,-0.1823900043964386,-0.964074432849884,-0.13017401099205017
12.22,0.015712186694145203,-0.007323476951569319,0.011318100616335869,-0.18141399323940277,-0.9628545045852661,-0.1311500072479248
12.24,0.011451254598796368,-0.007323476951569319,0.007057168986648321,-0.18141399323940277,-0.9628545045852661,-0.1311500072479248
12.26,0.010386021807789803,-0.0030625448562204838,0.004926702938973904,-0.17921799421310425,-0.9611465334892273,-0.13163799047470093
12.28,0.009320789016783237,-0.005193010903894901,0.009187635034322739,-0.1806820034980774,-0.9630984663963318,-0.12797801196575165
12.3,-0.0011983871227130294,-0.005193010903894901,0.004926702938973904,-0.18214599788188934,-0.9689545631408691,-0.1311500072479248
12.32,0.0061250897124409676,-0.006258244160562754,0.004926702938973904,-0.1777539998292923,-0.9621224999427795,-0.13139399886131287
12.34,0.0050598569214344025,-0.008388710208237171,0.0017310036346316338,-0.17799799144268036,-0.9660264849662781,-0.13383398950099945
12.36,0.010386021807789803,-0.009453942999243736,0.0027962366584688425,-0.1777539998292923,-0.961390495300293,-0.1352979987859726
12.38,0.009320789016783237,-0.011584409512579441,0.0027962366584688425,-0.18092601001262665,-0.9616345167160034,-0.13163799047470093
12.4,0.009320789016783237,-0.009453942999243736,0.0027962366584688425,-0.18019400537014008,-0.9660264849662781,-0.13456600904464722
12.42,0.0061250897124409676,-0.005193010903894901,-0.0003994623839389533,-0.18263401091098785,-0.9670025110244751,-0.12431800365447998
12.44,0.00399462366476655,-0.009453942999243736,0.000665770610794425,-0.18092601001262665,-0.9626104831695557,-0.12748999893665314
12.46,0.002929390873759985,-0.004127778112888336,0.000665770610794425,-0.17799799144268036,-0.9630984663963318,-0.1289539933204651
12.48,0.0018641578499227762,-0.001997311832383275,-0.0025299284607172012,-0.17799799144268036,-0.9630984663963318,-0.1289539933204651
12.5,0.0050598569214344025,0.0011983871227130294,-0.0003994623839389533,-0.18043801188468933,-0.9677344560623169,-0.1289539933204651
12.52,0.0007989247678779066,0.0033288532868027687,0.0017310036346316338,-0.18043801188468933,-0.964074432849884,-0.12993000447750092
12.54,0.0007989247678779066,0.0033288532868027687,0.000665770610794425,-0.18263401091098785,-0.9679784774780273,-0.1323700100183487
12.56,-0.005459319334477186,0.007589785382151604,0.0027962366584688425,-0.17750999331474304,-0.9628545045852661,-0.1294419914484024
12.58,-0.005459319334477186,0.008655018173158169,0.0017310036346316338,-0.1748259961605072,-0.957211971282959,-0.13139399886131287
12.6,-0.005459319334477186,0.010785484686493874,-0.0003994623839389533,-0.1811700016260147,-0.9584320187568665,-0.12968599796295166
12.62,-0.011850717477500439,0.013981183059513569,0.000665770610794425,-0.1777539998292923,-0.9628545045852661,-0.12748999893665314
12.64,-0.010785484686493874,0.019307348877191544,0.0017310036346316338,-0.18263401091098785,-0.9652945399284363,-0.12382999807596207
12.66,-0.004394086077809334,0.023568280041217804,0.0017310036346316338,-0.17629000544548035,-0.9626104831695557,-0.12700200080871582
12.68,-0.00226362026296556,0.019307348877191544,0.0038614696823060513,-0.1819019913673401,-0.9657825231552124,-0.1248060017824173
12.7,-0.008655018173158169,0.019307348877191544,0.0017310036346316338,-0.1789740025997162,-0.9611465334892273,-0.1282220035791397
12.72,-0.004394086077809334,0.017176883295178413,-0.0003994623839389533,-0.18092601001262665,-0.9589504599571228,-0.12919799983501434
12.74,-0.0033288532868027687,0.018242115154862404,0.0017310036346316338,-0.18092601001262665,-0.9589504599571228,-0.12919799983501434
12.76,-0.004394086077809334,0.017176883295178413,0.009187635034322739,-0.1765339970588684,-0.9645625352859497,-0.12919799983501434
12.78,-0.00226362026296556,0.019307348877191544,0.008122402243316174,-0.17726600170135498,-0.965538501739502,-0.12846601009368896
12.8,-0.0001331541279796511,0.013981183059513569,0.000665770610794425,-0.18043801188468933,-0.9645625352859497,-0.12993000447750092
12.82,-0.0033288532868027687,0.020372580736875534,0.0038614696823060513,-0.17458200454711914,-0.9628545045852661,-0.12846601009368896
12.84,-0.004394086077809334,0.015046416781842709,0.0027962366584688425,-0.1765339970588684,-0.9652945399284363,-0.12993000447750092
12.86,-0.0033288532868027687,0.015046416781842709,-0.0025299284607172012,-0.18019400537014008,-0.9672464728355408,-0.12212200462818146
12.88,-0.004394086077809334,0.007589785382151604,-0.0014646954368799925,-0.17531399428844452,-0.9650505185127258,-0.13017401099205017
12.9,-0.0033288532868027687,0.008655018173158169,0.000665770610794425,-0.1806820034980774,-0.9633424878120422,-0.12871000170707703
12.92,-0.008655018173158169,0.010785484686493874,-0.0014646954368799925,-0.1806820034980774,-0.9633424878120422,-0.12871000170707703
12.94,-0.006524552125483751,0.008655018173158169,-0.0014646954368799925,-0.17629000544548035,-0.964318573474884,-0.12968599796295166
12.96,-0.009720250964164734,0.004394086077809334,-0.0025299284607172012,-0.18092601001262665,-0.9633424878120422,-0.12846601009368896
12.98,-0.004394086077809334,0.005459319334477186,-0.00359516148455441,-0.18092601001262665,-0.9633424878120422,-0.12846601009368896
13,-0.005459319334477186,0.004394086077809334,-0.006790860556066036,-0.17409400641918182,-0.9594384431838989,-0.13261400163173676
13.02,-0.005459319334477186,-0.001997311832383275,-0.007856093347072601,-0.17970599234104156,-0.9630984663963318,-0.1282220035791397
13.04,-0.006524552125483751,-0.001997311832383275,-0.00359516148455441,-0.17726600170135498,-0.9596824645996094,-0.1294419914484024
13.06,-0.005459319334477186,-0.0030625448562204838,-0.005725627299398184,-0.1765339970588684,-0.9645625352859497,-0.12700200080871582
13.08,-0.007589785382151604,-0.004127778112888336,-0.0025299284607172012,-0.1714099943637848,-0.965538501739502,-0.12968599796295166
13.1,-0.010785484686493874,-0.0030625448562204838,-0.004660394508391619,-0.17750999331474304,-0.9672464728355408,-0.13090600073337555
13.12,-0.008655018173158169,-0.0030625448562204838,-0.0025299284607172012,-0.1760459989309311,-0.9630984663963318,-0.13041800260543823
13.14,-0.19720126688480377,0.20985090732574463,0.2231663167476654,0.13246150314807892,0.4080289900302887,0.9387595057487488
13.16,0.09240896254777908,0.051264338195323944,0.19773387908935547,0.09436699748039246,0.3984825015068054,0.9866445064544678
13.18,-0.0981345921754837,0.015046416781842709,0.2551233172416687,0.09436699748039246,0.3984825015068054,0.9866445064544678
13.2,-0.19933173060417175,0.010785484686493874,0.3861469626426697,0.08973100036382675,0.367220014333725,0.8435080051422119
13.22,-0.1407439112663269,0.034220609813928604,0.38827744126319885,0.14395999908447266,0.3291254937648773,0.96001797914505
13.24,-0.10452599078416824,0.18748101592063904,0.3925383687019348,0.18083450198173523,0.32717350125312805,0.9785924553871155
13.26,-0.08002562820911407,0.19813334941864014,0.31584158539772034,0.21380500495433807,0.3220190107822418,0.9326594471931458
13.28,-0.15672241151332855,0.1384802907705307,0.3414071798324585,0.21380500495433807,0.3220190107822418,0.9326594471931458
13.3,-0.1418091505765915,0.051264338195323944,0.3509942889213562,0.22676749527454376,0.3046950101852417,0.995916485786438
13.32,0.04234301298856735,-0.1564560979604721,0.2742975056171417,0.22261948883533478,0.30859899520874023,1.002016544342041
13.34,0.1424749195575714,-0.17030413448810577,0.19879911839962006,0.23921151459217072,0.33522549271583557,0.9336355328559875
13.36,0.07110430300235748,-0.035019535571336746,0.17962491512298584,0.23921151459217072,0.33522549271583557,0.9336355328559875
13.38,-0.054460037499666214,0.3003957271575928,0.25192761421203613,0.19989700615406036,0.31884700059890747,0.907496988773346
13.4,-0.026763979345560074,0.14380645751953125,0.2338186502456665,0.20355699956417084,0.30908700823783875,0.9253395199775696
13.42,-0.006524552125483751,-0.24913136661052704,0.14766792953014374,0.18351849913597107,0.35989999771118164,0.9216489791870117
13.44,0.04660394415259361,-0.22995717823505402,0.18814678490161896,0.1593320071697235,0.3298574984073639,0.91628098487854
13.46,0.2521939277648926,-0.447264701128006,0.17962491512298584,0.16250398755073547,0.30664700269699097,0.9837164282798767
13.48,0.29693371057510376,-0.2640446424484253,0.05073172226548195,0.2719379961490631,0.37380799651145935,0.9663619995117188
13.5,0.2063889056444168,-0.001997311832383275,0.0038614696823060513,0.36966001987457275,0.4451475143432617,1.024006962776184
13.52,-0.011850717477500439,-0.09041165560483932,-0.12822742760181427,0.18669049441814423,0.3437654972076416,0.8703784942626953
13.54,-0.044872939586639404,0.2652430236339569,0.03794892504811287,0.18669049441814423,0.3437654972076416,0.8703784942626953
13.56,-0.019307348877191544,0.5017247796058655,0.2041252851486206,0.08289900422096252,0.27538448572158813,0.9583100080490112
13.58,-0.21957115828990936,0.504920482635498,0.2169080674648285,0.13124150037765503,0.298350989818573,0.8901424407958984
13.6,-0.5508586168289185,0.7444647550582886,0.32436347007751465,0.12538550794124603,0.3117710053920746,0.7890349626541138
13.62,-0.8905348181724548,1.2270152568817139,0.33714625239372253,0.1331934928894043,0.2616899907588959,0.8134655356407166
13.64,-1.0204932689666748,1.1652318239212036,0.3499290347099304,0.1331934928894043,0.2616899907588959,0.8134655356407166
13.66,-1.050319790840149,1.025686264038086,0.2753627300262451,0.10952550917863846,0.2585180103778839,0.8652240037918091
13.68,-0.8820129632949829,0.49746382236480713,0.1412765234708786,0.15664801001548767,0.22457149624824524,0.9404674768447876
13.7,-0.554054319858551,-0.057389430701732635,0.2252967804670334,0.0462380014359951,0.2084370106458664,1.052585482597351
13.72,-0.1716356724500656,-0.49413496255874634,0.16471165418624878,0.06408049911260605,0.20502100884914398,1.1068145036697388
13.74,-0.06511236727237701,-0.5877423286437988,0.11358047276735306,0.08289900422096252,0.2072170078754425,1.028643012046814
13.76,-0.19613602757453918,-0.6761566400527954,0.33714625239372253,0.11611350625753403,0.21380500495433807,0.9903045296669006
13.78,-0.2888112962245941,-0.4994611442089081,0.35632044076919556,0.16961050033569336,0.20233699679374695,0.9441275000572205
13.8,-0.35059481859207153,-0.18521739542484283,0.3818860352039337,0.14298400282859802,0.19111299514770508,0.968313992023468
13.82,-0.42196542024612427,0.3419398069381714,0.3850817382335663,0.14298400282859802,0.19111299514770508,0.968313992023468
13.84,-0.6476616859436035,0.8509880304336548,0.16790735721588135,0.15908800065517426,0.15518400073051453,0.8303014636039734
13.86,-0.705184280872345,1.0608389377593994,0.02516612969338894,0.14859600365161896,0.1016869992017746,1.0091229677200317
13.88,-0.4794880151748657,0.8584446907043457,-0.14953207969665527,0.14859600365161896,0.1016869992017746,1.0091229677200317
13.9,-0.20146219432353973,0.8190310597419739,-0.11224892735481262,0.08216699957847595,0.19233299791812897,0.8935585021972656
13.92,0.03808208182454109,0.8680317401885986,-0.13887976109981537,-0.001891000079922378,0.19721300899982452,1.0574655532836914
13.94,-0.06937330216169357,0.023568280041217804,0.03581846132874489,0.12221349775791168,0.31079497933387756,0.9387595057487488
13.96,-0.06404713541269302,0.051264338195323944,0.03688369318842888,0.13416950404644012,0.29688698053359985,0.9502580165863037
13.98,-0.09600412845611572,0.048068638890981674,0.02836182899773121,0.12953349947929382,0.2870965003967285,0.9688019752502441
14,0.015712186694145203,0.06511236727237701,0.05392742156982422,0.14152000844478607,0.3012790083885193,0.972461998462677
14.02,0.030625449493527412,0.0001331541279796511,0.03155753016471863,0.14152000844478607,0.3012790083885193,0.972461998462677
14.04,-0.058720968663692474,0.011850717477500439,0.012383334338665009,0.12221349775791168,0.2978629767894745,0.9575780034065247
14.06,-0.10026505589485168,-0.010519175790250301,0.02516612969338894,0.12465349584817886,0.29148849844932556,0.9514779448509216
14.08,-0.18548369407653809,-0.025432437658309937,-0.03555215150117874,0.13810399174690247,0.3017669916152954,0.9282674789428711
14.1,-0.5220973491668701,0.10026505589485168,0.02090519852936268,0.1757104992866516,0.27587249875068665,0.826885461807251
14.12,-0.6497921347618103,0.36857062578201294,0.10825430601835251,0.0853390023112297,0.29392850399017334,0.8999329805374146
14.14,-0.5274235010147095,1.0118381977081299,0.36803799867630005,0.1180654987692833,0.28660848736763,0.9690459370613098
14.16,-0.3974650800228119,1.018229603767395,0.667368471622467,-0.056363996118307114,0.3711239993572235,0.9101810455322266
14.18,-0.40172600746154785,0.7604432106018066,0.7291520237922668,0.008631499484181404,0.2778244912624359,0.9519660472869873
14.2,-0.43687868118286133,0.6189003586769104,0.666303277015686,0.09631899744272232,0.20599699020385742,0.995916485786438
14.22,-0.16417904198169708,-0.040345702320337296,0.35418999195098877,0.1314854919910431,0.14347200095653534,1.0638400316238403
14.24,0.18082331120967865,-0.37376365065574646,0.09227581322193146,0.1693664938211441,0.09631899744272232,1.227990984916687
14.26,0.39386990666389465,-0.23315288126468658,-0.00359516148455441,0.12074949592351913,0.15201200544834137,1.1918179988861084
14.28,0.33208638429641724,-0.06591129302978516,-0.004660394508391619,0.0462380014359951,0.1815665066242218,0.9592859745025635
14.3,0.17230144143104553,0.10133028775453568,-0.009986559860408306,0.06530049443244934,0.19818899035453796,0.9089609980583191
14.32,0.11584409326314926,0.2226337045431137,-0.011051792651414871,0.07798849791288376,0.22847551107406616,0.9329034686088562
14.34,0.16804051399230957,0.1715025156736374,0.007057168986648321,0.07384049892425537,0.24778199195861816,0.9895725250244141
14.36,0.18295377492904663,0.07043853402137756,0.05499265342950821,0.053314000368118286,0.26925399899482727,1.0174189805984497
14.38,0.1009308323264122,0.051264338195323944,0.09121058136224747,0.045993998646736145,0.26534998416900635,0.9803005456924438
14.4,0.09880036115646362,0.09493889659643173,0.08694964647293091,0.0760364979505539,0.2294515073299408,0.9685579538345337
14.42,0.22556309401988983,-0.1255643367767334,0.06990591436624527,0.05895650014281273,0.2660819888114929,1.0054630041122437
14.44,0.03808208182454109,0.03848154470324516,-0.007856093347072601,0.09192699939012527,0.25144198536872864,0.9648980498313904
14.46,-0.11198262125253677,0.08641702681779861,-0.06644391268491745,0.06944850087165833,0.25900599360466003,0.9695340394973755
14.48,-0.17057043313980103,0.09706936031579971,-0.07070484012365341,0.06944850087165833,0.25900599360466003,0.9695340394973755
14.5,-0.13328728079795837,0.06937330216169357,-0.05366111174225807,0.05404600128531456,0.25071001052856445,0.9795685410499573
