timestamp,gyro_x,gyro_y,gyro_z,acc_x,acc_y,acc_z
0,-0.5572500228881836,0.31211328506469727,0.14979839324951172,-0.13917149603366852,0.18059049546718597,0.9016410112380981
0.02,-0.5210320949554443,0.6710968017578125,0.6620423197746277,-0.14673548936843872,0.14640000462532043,0.984936535358429
0.04,-0.20252743363380432,0.6039870977401733,0.8696296215057373,-0.23222701251506805,0.09851499646902084,1.185718059539795
0.06,-0.012915950268507004,0.536877453327179,0.8547163605690002,-0.1840979903936386,0.11538149416446686,1.181570053100586
0.08,0.2063889056444168,0.03954677656292915,0.590671718120575,-0.10787849128246307,0.09436699748039246,1.0757960081100464
0.1,0.6461969614028931,-0.617568850517273,0.6822817325592041,-0.24003499746322632,0.15347599983215332,1.2406790256500244
0.12,0.8528521656990051,-0.7880061268806458,0.797326922416687,-0.3016144931316376,0.15615999698638916,1.295639991760254
0.14,1.0541812181472778,-0.316241055727005,1.0027837753295898,-0.2840160131454468,0.0836310014128685,1.2953959703445435
0.16,1.6473828554153442,1.202514886856079,1.4235507249832153,-0.25446149706840515,-0.0055509996600449085,1.4805614948272705
0.18,2.859351634979248,1.1694927215576172,1.8867939710617065,-0.2004764974117279,-0.04437749832868576,1.4839774370193481
0.2,3.703815221786499,0.1374150663614273,2.2733404636383057,-0.1176690086722374,0.020831499248743057,1.2392150163650513
0.22,1.1766830682754517,-2.086258888244629,-0.45725128054618835,-0.1416115015745163,0.1390800029039383,0.7990390062332153
0.24,-0.06404713541269302,-0.870029091835022,-0.7533860802650452,-0.23710699379444122,0.5113325119018555,0.3092699944972992
0.26,-0.6508573889732361,-0.9243559837341309,-0.24007689952850342,-0.23710699379444122,0.5113325119018555,0.3092699944972992
0.28,-0.427291601896286,-1.628341794013977,0.20199480652809143,-0.43471649289131165,0.5189269781112671,0.8232255578041077
0.3,0.49080610275268555,-1.659233570098877,0.18921200931072235,-0.11132500320672989,0.38847851753234863,0.736270010471344
0.32,0.3246297538280487,-1.8295377492904663,1.279744267463684,-0.11132500320672989,0.38847851753234863,0.736270010471344
0.34,-0.0991998240351677,-2.0053012371063232,1.9485775232315063,-0.01823900081217289,0.25583401322364807,0.6368399858474731
0.36,-0.26218047738075256,-3.013810634613037,3.0050222873687744,0.08631499856710434,0.18303050100803375,0.6307400465011597
0.38,0.2937380075454712,-3.0915725231170654,3.8761167526245117,-0.11913299560546875,0.0731084942817688,0.6148495078086853
0.4,0.7580464482307434,-4.53469705581665,4.333101749420166,0.02769399993121624,-0.027510998770594597,0.5652565360069275
0.42,0.6015903353691101,-8.067276000976562,5.258522987365723,0.08460699766874313,-0.07759200036525726,0.1453630030155182
0.44,0.9732235074043274,-9.271788597106934,6.400186538696289,0.27806851267814636,-0.4269085228443146,-0.0693570002913475
0.46,1.789058804512024,-9.41666030883789,7.39391565322876,0.3916504979133606,-0.6264700293540955,0.04593300074338913
0.48,2.2480411529541016,-8.148233413696289,7.72613525390625,0.651540994644165,-0.7823249697685242,0.08820600062608719
0.5,2.185192346572876,-6.783936500549316,7.795375347137451,0.8477169871330261,-0.8489980101585388,-0.058102499693632126
0.52,1.9380583763122559,-3.471860647201538,7.298044681549072,1.1439939737319946,-0.8143194913864136,0.019062500447034836
0.54,2.4353890419006348,-1.3172937631607056,6.079684257507324,1.7334370613098145,-0.7774450182914734,0.48809146881103516
0.56,3.4610753059387207,-0.7816147208213806,4.433233737945557,2.2859749794006348,-0.6711829900741577,0.9263154864311218
0.58,4.435497283935547,0.04913387447595596,1.5427237749099731,2.697328567504883,-0.47210949659347534,0.8884345293045044
0.6,4.177844047546387,0.9702941179275513,0.013448567129671574,2.740577459335327,-0.284991979598999,0.3735029995441437
0.62,2.9424400329589844,1.468690037727356,-1.9472459554672241,2.631631374359131,-0.22072851657867432,-0.02635199949145317
0.64,1.7081011533737183,1.4942556619644165,-2.7076892852783203,2.0986135005950928,-0.060756001621484756,-0.8871840238571167
0.66,-0.21211452782154083,1.5027774572372437,-3.3999574184417725,1.8406749963760376,-0.06002400070428848,-1.016168475151062
0.68,-1.3282123804092407,1.2270152568817139,-3.5223262310028076,1.250499963760376,-0.2121885120868683,-1.0706415176391602
0.7,-1.9704147577285767,1.2664289474487305,-3.309412717819214,0.9703270196914673,-0.3726795017719269,-0.756491482257843
0.72,-1.899044156074524,0.5070509314537048,-2.4818596839904785,0.22091150283813477,-0.40564998984336853,-0.005581500008702278
0.74,-1.1312774419784546,-1.5484493970870972,-1.833266019821167,0.12465349584817886,-0.2756894826889038,0.4441105127334595
0.76,-0.6338136196136475,-2.1949126720428467,-0.9993217587471008,-0.017506999894976616,-0.38512352108955383,1.0254709720611572
0.78,0.08601756393909454,-2.108628749847412,0.19773387908935547,0.05038600042462349,-0.4127260148525238,1.1016905307769775
0.8,-2.6754658222198486,-0.6431344151496887,-0.09733566641807556,1.0997995138168335,0.2756285071372986,-1.9155523777008057
0.82,-2.316615581512451,-1.4802744388580322,-1.100518822669983,1.2219215631484985,-0.09860650449991226,0.2076440006494522
0.84,-2.106764554977417,-0.9999874830245972,-0.9216928482055664,1.067317008972168,-0.693417489528656,0.48269301652908325
0.86,-1.9629580974578857,-0.5270240306854248,-0.6543194055557251,0.8296304941177368,-0.6714270114898682,0.19056399166584015
0.88,-2.022611141204834,-1.602776288986206,-0.7278204560279846,1.060942530632019,-0.23003101348876953,-0.20907750725746155
0.9,-2.622204303741455,-1.0670971870422363,-0.6905373334884644,1.1098034381866455,-0.14600349962711334,-0.2454639971256256
0.92,-3.4827792644500732,0.7860088348388672,-0.3711005449295044,0.944920539855957,-0.41324448585510254,0.23671048879623413
0.94,-4.031241416931152,2.50502872467041,0.44366955757141113,0.6342170238494873,-0.5871555209159851,-0.5603460073471069
0.96,-2.851229429244995,1.1982539892196655,0.8101097345352173,0.7719855308532715,-0.6521205306053162,0.7125715017318726
0.98,-1.7947845458984375,-0.8380720615386963,1.2073085308074951,1.0399584770202637,-0.4933375120162964,0.7084234952926636
1,-1.035406470298767,-1.4685568809509277,1.7717487812042236,0.9925615191459656,0.011803499422967434,0.22573049366474152
1.02,-0.3143768906593323,-1.5740149021148682,2.5598881244659424,0.8787354826927185,-0.013359000906348228,0.13169901072978973
1.04,-0.09067796170711517,-0.4014596939086914,3.6227242946624756,0.7700335383415222,-0.23857101798057556,0.0962579995393753
1.06,-0.19613602757453918,-0.210782989859581,4.1008806228637695,0.8286544680595398,-0.47308549284935,0.10922049731016159
1.08,-0.6742925047874451,-3.3344457149505615,4.152011871337891,1.032364010810852,-0.5619930028915405,-0.21273750066757202
1.1,0.028494983911514282,-2.3259363174438477,4.346949577331543,0.8296304941177368,-0.32040250301361084,0.05157550051808357
1.12,0.738872230052948,0.004394086077809334,3.270132303237915,0.8843474984169006,-0.6365044713020325,0.1995919942855835
1.14,1.1724220514297485,0.6465964317321777,1.2136998176574707,0.9502885341644287,-0.9924090504646301,-0.17805899679660797
1.16,-0.25259336829185486,1.8021079301834106,0.5896064639091492,0.6168624758720398,-0.8074874877929688,-0.41278699040412903
1.18,-0.5902722477912903,2.0437827110290527,0.47562655806541443,0.6217425465583801,-0.5893514752388,-0.10403549671173096
1.2,-0.40172600746154785,2.3313956260681152,0.4575175940990448,0.7158045172691345,-0.7095215320587158,0.09967400133609772
1.22,0.1531272530555725,2.1471102237701416,0.4798874855041504,0.7180004715919495,-0.6982975006103516,0.22158248722553253
1.24,0.10199606418609619,1.6561710834503174,0.2561885416507721,0.5504335165023804,-0.8111475110054016,0.018818499520421028
1.26,-0.5295539498329163,1.370688557624817,-0.09094426780939102,0.5921880006790161,-0.7046414613723755,-0.24302400648593903
1.28,-1.0300803184509277,0.8637708425521851,0.23594911396503448,0.5963360071182251,-0.5988675355911255,-0.26623451709747314
1.3,-0.6742925047874451,0.7242252826690674,-0.11864032596349716,0.7265405058860779,-0.5387824773788452,0.11117250472307205
1.32,-0.3133116662502289,-0.15432563424110413,0.544866681098938,0.5101125240325928,-0.6286660432815552,0.13560301065444946
1.34,0.28841185569763184,-0.6165035963058472,2.224339723587036,0.42169296741485596,-0.6225659847259521,0.18394549190998077
1.36,0.8965267539024353,-1.35990309715271,3.6376376152038574,0.40287449955940247,-0.762530505657196,0.04568900167942047
1.38,1.137269377708435,-2.095845937728882,4.0774455070495605,0.45881152153015137,-0.9342759847640991,-0.011467999778687954
1.4,1.0392680168151855,-2.3131535053253174,3.6280505657196045,0.4202290177345276,-0.9652945399284363,-0.022935999557375908
1.42,0.5302197337150574,-1.5782759189605713,2.9943699836730957,0.3723439872264862,-0.9479399919509888,-0.0827770009636879
1.44,0.2404763549566269,-1.453643560409546,2.9858481884002686,0.18766650557518005,-0.9494039416313171,0.12264050543308258
1.46,0.1222354918718338,-1.9818660020828247,2.932586431503296,0.2995404899120331,-1.0043649673461914,0.08332599699497223
1.48,0.15845340490341187,-2.1949126720428467,2.8132803440093994,0.22042348980903625,-1.026355504989624,0.13438299298286438
1.5,0.27882474660873413,-2.476001024246216,2.829258918762207,0.030865998938679695,-1.0111969709396362,0.09577000141143799
1.52,0.03169068321585655,-1.612363338470459,2.5439095497131348,0.02571149915456772,-1.0016809701919556,-0.04614650085568428
1.54,-0.22915825247764587,-0.484547883272171,1.8527065515518188,0.07213249802589417,-1.054934024810791,-0.00878399983048439
1.56,-0.3868127465248108,0.19706811010837555,0.9697614908218384,0.01424350030720234,-1.0072929859161377,0.07036349922418594
1.58,-0.6497921347618103,0.5773562788963318,0.675890326499939,-0.14063550531864166,-0.9933850169181824,0.024948999285697937
1.6,-0.38148656487464905,0.08535179495811462,0.3392767310142517,-0.2349109947681427,-1.171444058418274,0.06987550109624863
1.62,0.002929390873759985,0.15126308798789978,-0.0185084231197834,-0.3626755177974701,-1.1831865310668945,-0.11968199908733368
1.64,0.28521615266799927,0.3089175820350647,-0.42742475867271423,-0.1660420000553131,-0.9093575477600098,-0.04736649990081787
1.66,0.2905423045158386,0.43035414814949036,-0.5115781426429749,-0.07661599665880203,-0.873916506767273,0.05352750048041344
1.68,0.16058388352394104,-0.2938711643218994,-0.5115781426429749,-0.06856400519609451,-0.9232655167579651,-0.05688249692320824
1.7,0.23088926076889038,-0.33435001969337463,-0.48068639636039734,-0.05072150006890297,-0.9880170226097107,0.024948999285697937
1.72,0.2287587970495224,-0.25871846079826355,-0.45938172936439514,0.014975500293076038,-1.0036330223083496,-0.025619998574256897
1.74,0.1754971444606781,-0.38548120856285095,-0.3199693560600281,0.04404200240969658,-0.9875290393829346,-0.03736249729990959
1.76,0.20958459377288818,-0.042476166039705276,-0.006790860556066036,-0.009211000055074692,-1.058593988418579,0.06889950484037399
1.78,0.08708280324935913,0.012915950268507004,0.06990591436624527,-0.0710040032863617,-1.113798975944519,0.06621550023555756
1.8,0.017842652276158333,0.054460037499666214,0.02410089783370495,-0.032421499490737915,-0.9618784785270691,0.025193000212311745
1.82,0.00719032296910882,-0.07762885838747025,-0.02489982172846794,-0.04901350289583206,-0.9792025089263916,0.008570500649511814
1.84,0.00719032296910882,-0.11278154700994492,-0.04620448127388954,-0.05929199978709221,-0.9823745489120483,0.005886499769985676
1.86,0.00719032296910882,-0.08082455396652222,-0.04087831825017929,-0.07197999954223633,-0.9757865071296692,0.02125849947333336
1.88,0.026364516466856003,-0.028628136962652206,-0.03129122033715248,-0.0907985046505928,-0.9889929890632629,0.044224999845027924
1.9,0.03488638252019882,0.010785484686493874,-0.02809552103281021,-0.1042185053229332,-0.9779825210571289,0.056455500423908234
1.92,0.0061250897124409676,0.048068638890981674,-0.02916075475513935,-0.1042185053229332,-0.9779825210571289,0.056455500423908234
1.94,-0.006524552125483751,0.031024912372231483,-0.04300878196954727,-0.08421050012111664,-0.9818865656852722,0.057675499469041824
1.96,-0.007589785382151604,0.017176883295178413,-0.05792204663157463,-0.062219999730587006,-1.014399528503418,0.03617300093173981
1.98,0.0018641578499227762,0.008655018173158169,-0.05898727849125862,-0.03437349945306778,-1.022207498550415,0.037636999040842056
2,-0.005459319334477186,-0.013714875094592571,-0.05579157918691635,-0.016774998977780342,-1.013911485671997,0.027632998302578926
2.02,-0.017176883295178413,-0.038215234875679016,-0.04513924941420555,-0.008967000059783459,-0.9914329648017883,0.014670499600470066
2.04,-0.022503048181533813,-0.06271559745073318,-0.039813082665205,0.00692349998280406,-0.9760304689407349,0.007350499741733074
2.06,0.013581721112132072,-0.10532491654157639,-0.03342168778181076,0.003995500039309263,-0.9699305295944214,0.003446500049903989
2.08,0.07323476672172546,-0.16497796773910522,-0.015312724746763706,0.012291500344872475,-0.9782265424728394,0.00783849973231554
2.1,0.10306129604578018,-0.18415215611457825,0.0017310036346316338,0.005703500006347895,-0.9760304689407349,0.000030499999411404133
2.12,0.12756165862083435,-0.1884130984544754,0.03049229457974434,-0.0031109999399632215,-0.9816425442695618,0.0036904998123645782
2.14,0.15099677443504333,-0.17030413448810577,0.05073172226548195,-0.011895000003278255,-0.9970450401306152,0.011010500602424145
2.16,0.15632294118404388,-0.16178226470947266,0.04860125854611397,-0.03266550227999687,-0.9970450401306152,0.019306501373648643
2.18,0.14780108630657196,-0.14047759771347046,0.02090519852936268,-0.059779997915029526,-0.9897249937057495,0.036660999059677124
2.2,0.10199606418609619,-0.12449911236763,-0.02063889056444168,-0.083234503865242,-0.9757865071296692,0.044224999845027924
2.22,0.027429750189185143,-0.038215234875679016,-0.04940018057823181,-0.08762650191783905,-0.9638304710388184,0.06621550023555756
2.24,-0.0555252730846405,-0.035019535571336746,-0.05685681104660034,-0.07905599474906921,-0.9755424857139587,0.06084749847650528
2.26,-0.12263495475053787,0.022503048181533813,-0.07603100687265396,-0.0663679987192154,-0.9660264849662781,0.06987550109624863
2.28,-0.1205044835805893,0.0555252730846405,-0.03129122033715248,-0.059779997915029526,-0.959926426410675,0.06328749656677246
2.3,-0.06937330216169357,0.13634982705116272,-0.013182258233428001,-0.06392800062894821,-1.0002169609069824,0.05962750315666199
2.32,-0.034220609813928604,0.13208889961242676,-0.0025299284607172012,-0.07173600047826767,-1.0270874500274658,0.05718749761581421
2.34,-0.017176883295178413,0.15765449404716492,0.01983996480703354,-0.04828149825334549,-1.0200115442276,0.06621550023555756
2.36,-0.020372580736875534,0.13315412402153015,0.02303566411137581,-0.04559750109910965,-1.0029009580612183,0.06353150308132172
2.38,-0.050199106335639954,0.11397993564605713,-0.0014646954368799925,-0.048525501042604446,-0.9926530122756958,0.05791949853301048
2.4,-0.07576470077037811,0.10545806586742401,-0.01637795753777027,-0.03437349945306778,-0.9882610440254211,0.04178500175476074
2.42,-0.058720968663692474,0.10332760214805603,-0.013182258233428001,-0.03437349945306778,-0.9882610440254211,0.04178500175476074
2.44,-0.020372580736875534,0.11184946447610855,0.011318100616335869,-0.016287000849843025,-0.9843264818191528,0.03934499993920326
2.46,0.030625449493527412,0.058720968663692474,0.02410089783370495,-0.011163000017404556,-0.9774945378303528,0.034953001886606216
2.48,0.04660394415259361,0.025698747485876083,0.04327509179711342,0.004727500025182962,-0.9897249937057495,0.01589049957692623
2.5,0.029560215771198273,0.0011983871227130294,0.07629731297492981,0.009363500401377678,-0.9997289776802063,0.02568100020289421
2.52,-0.031024912372231483,0.022503048181533813,0.09653674066066742,-0.00750300008803606,-0.9523320198059082,0.03617300093173981
2.54,-0.2813546657562256,0.060851436108350754,0.011318100616335869,-0.06173199787735939,-0.9413520693778992,0.03422100096940994
2.56,-1.0471240282058716,0.2023942768573761,-0.2091851383447647,-0.06173199787735939,-0.9413520693778992,0.03422100096940994
2.58,-1.6264777183532715,-0.08082455396652222,-0.38814428448677063,-0.08933449536561966,-0.9340320229530334,0.02348499931395054
2.6,-1.2898640632629395,0.08641702681779861,-0.19533710181713104,-0.11327699571847916,-1.0478579998016357,0.05035549774765968
2.62,-0.6062507629394531,0.3398093283176422,0.07629731297492981,-0.008967000059783459,-0.9965570569038391,-0.1037914976477623
2.64,0.19360610842704773,0.25991687178611755,0.2742975056171417,-0.008967000059783459,-0.8976149559020996,-0.11233150213956833
2.66,0.7548507452011108,0.10758853703737259,0.34353765845298767,0.008875500410795212,-0.9093575477600098,-0.0962275043129921
2.68,0.9657669067382812,-0.022236740216612816,0.3073197305202484,0.024979500100016594,-0.972370445728302,-0.07862900197505951
2.7,0.929548978805542,-0.14154283702373505,0.21158191561698914,0.007411499973386526,-1.0253795385360718,-0.02025200054049492
2.72,0.7015891075134277,-0.20226112008094788,0.11251524090766907,-0.006039000116288662,-1.0351394414901733,-0.011467999778687954
2.74,0.3672390878200531,-0.23741380870342255,0.07523208111524582,-0.016530999913811684,-1.0126609802246094,0.024217000231146812
2.76,0.10306129604578018,-0.15006470680236816,0.06564498692750931,-0.03827749937772751,-0.9963130354881287,0.02714500017464161
2.78,0.00399462366476655,-0.11810771375894547,0.01770949922502041,-0.06831999868154526,-0.9726144671440125,0.005154499784111977
2.8,-0.08002562820911407,-0.23954427242279053,-0.09520520269870758,-0.10007049888372421,-1.0200115442276,-0.02757200039923191
2.82,-0.13861344754695892,-0.08615072071552277,-0.16338011622428894,-0.08347850292921066,-0.9506240487098694,0.03202500194311142
2.84,-0.025698747485876083,-0.03288906812667847,-0.015312724746763706,-0.023606998845934868,-0.9865529537200928,-0.008295999839901924
2.86,0.08814803510904312,-0.0712374597787857,0.012383334338665009,-0.0365694984793663,-1.0244035720825195,-0.006831999868154526
2.88,0.09773512929677963,-0.015845341607928276,0.03155753016471863,-0.04291350021958351,-0.9980210065841675,0.017598498612642288
2.9,-0.007589785382151604,0.09387365728616714,0.02836182899773121,-0.08076400309801102,-0.961390495300293,0.034953001886606216
2.92,-0.12476541846990585,0.10239552706480026,0.02942706272006035,-0.058316003531217575,-0.9528200030326843,0.019306501373648643
2.94,-0.30478981137275696,0.23648172616958618,0.0347532257437706,-0.0441334992647171,-0.9093575477600098,0.0210145004093647
2.96,-0.63700932264328,0.2535254657268524,-0.008921326138079166,-0.07881199568510056,-0.9545280337333679,0.00564250024035573
2.98,-0.804250955581665,0.2790910601615906,-0.07816147059202194,-0.07685999572277069,-1.0331875085830688,-0.006831999868154526
3,-0.8788172602653503,0.3717663288116455,-0.12183602899312973,-0.07051600515842438,-1.041025996208191,-0.0287919994443655
3.02,-0.7818810343742371,0.2556559145450592,-0.1474016159772873,-0.02433899976313114,-1.0231834650039673,-0.0512705035507679
3.04,-0.5902722477912903,0.15339355170726776,-0.19746756553649902,-0.0070150005631148815,-0.9801784753799438,-0.06106100231409073
3.06,-0.3005288541316986,0.024633513763546944,-0.0930747389793396,-0.014334999956190586,-1.00826895236969,-0.06325700134038925
3.08,0.07536523789167404,-0.027562905102968216,0.02090519852936268,0.005947500001639128,-0.98066645860672,-0.08619300276041031
3.1,0.17975807189941406,-0.055258963257074356,0.03262276202440262,-0.01579900085926056,-0.9760304689407349,-0.09281149506568909
3.12,0.18401899933815002,-0.09680305421352386,0.04753602296113968,-0.02702300064265728,-0.9616345167160034,-0.07106500118970871
3.14,0.15951864421367645,-0.10958584398031235,0.04220985993742943,-0.03144549950957298,-0.9757865071296692,-0.06252499669790268
3.16,0.1339530497789383,-0.09041165560483932,0.013448567129671574,-0.030957499518990517,-0.9909449815750122,-0.06276899576187134
3.18,0.10412652790546417,-0.07017222791910172,-0.004660394508391619,-0.038521502166986465,-0.9936290383338928,-0.055662501603364944
3.2,0.07216953486204147,-0.052063263952732086,0.005991935729980469,-0.0319334976375103,-0.997776985168457,-0.049318499863147736
3.22,0.07856093347072601,-0.009453942999243736,0.03688369318842888,-0.05316150188446045,-0.9777385592460632,-0.06252499669790268
3.24,0.12010502070188522,0.0011983871227130294,0.0454055592417717,-0.06173199787735939,-0.9704185128211975,-0.061549004167318344
3.26,0.12969212234020233,-0.008388710208237171,0.02410089783370495,-0.05612000450491905,-0.979446530342102,-0.04761049896478653
3.28,0.08069140464067459,0.044872939586639404,-0.0003994623839389533,-0.05538799986243248,-0.9909449815750122,-0.041754499077796936
3.3,0.03914731368422508,0.07576470077037811,-0.03661738336086273,-0.060756001621484756,-0.9894810318946838,-0.03394649922847748
3.32,0.016777420416474342,0.10332760214805603,-0.06963960826396942,-0.060756001621484756,-0.9894810318946838,-0.03394649922847748
3.34,0.009320789016783237,0.12995843589305878,-0.08455286920070648,-0.06685599684715271,-0.9926530122756958,-0.03858250007033348
3.36,0.023168819025158882,0.11824086308479309,-0.07816147059202194,-0.04462150111794472,-0.9787145256996155,-0.03394649922847748
3.38,0.04873441159725189,0.09600412845611572,-0.06963960826396942,-0.019214998930692673,-0.9726144671440125,-0.048098500818014145
3.4,0.0902784988284111,0.09174319356679916,-0.06857437640428543,-0.01945899985730648,-0.9865529537200928,-0.0541984960436821
3.42,0.12543119490146637,0.03209014609456062,-0.04940018057823181,-0.04535349830985069,-0.9770064353942871,-0.04492649808526039
3.44,0.11477886140346527,0.05978620424866676,0.03688369318842888,-0.008967000059783459,-1.0121729373931885,-0.02269200049340725
3.46,0.05619104206562042,0.057655736804008484,0.10825430601835251,0.015707500278949738,-0.9926530122756958,-0.04614650085568428
3.48,0.012516488321125507,0.051264338195323944,0.11464570462703705,0.011315500363707542,-0.9760304689407349,-0.05663849785923958
3.5,-0.031024912372231483,0.011850717477500439,0.098667211830616,0.013023500330746174,-0.9535519480705261,-0.05663849785923958
3.52,-0.17057043313980103,-0.005193010903894901,0.01877473294734955,-0.007991000078618526,-0.9696865081787109,-0.05029449984431267
3.54,-0.27496325969696045,-0.029693370684981346,-0.07603100687265396,-0.03022550232708454,-0.9779825210571289,-0.06081699952483177
3.56,-0.33674678206443787,-0.031823836266994476,-0.11864032596349716,-0.04559750109910965,-0.98996901512146,-0.0647209957242012
3.58,-0.3857475221157074,-0.03608476743102074,-0.14314068853855133,-0.0319334976375103,-1.0014370679855347,-0.07301700115203857
3.6,-0.5039883852005005,-0.017975807189941406,-0.16231487691402435,-0.014334999956190586,-0.9853024482727051,-0.08497299998998642
3.62,-0.7296846508979797,0.057655736804008484,-0.18468476831912994,-0.01067500002682209,-0.9782265424728394,-0.08204499632120132
3.64,-1.1238207817077637,0.16511112451553345,-0.17403244972229004,-0.026290997862815857,-0.9755424857139587,-0.13310199975967407
3.66,-1.303712010383606,0.19706811010837555,-0.14314068853855133,-0.0014029999729245901,-0.9704185128211975,-0.11504600197076797
3.68,-1.1206251382827759,0.0981345921754837,-0.07922670245170593,-0.004330999683588743,-1.0092450380325317,-0.1306620091199875
3.7,-0.7648373246192932,0.1288931965827942,-0.01637795753777027,-0.02924949862062931,-1.0265995264053345,-0.1614365130662918
3.72,-0.38148656487464905,0.12569749355316162,-0.009986559860408306,-0.04193750023841858,-0.999972939491272,-0.1323700100183487
3.74,-0.04274247586727142,0.022503048181533813,-0.01744319126009941,-0.019946999847888947,-0.9579439759254456,-0.16753649711608887
3.76,0.12010502070188522,-0.010519175790250301,-0.0025299284607172012,-0.021654998883605003,-0.957211971282959,-0.19221100211143494
3.78,0.21171505749225616,-0.001997311832383275,0.000665770610794425,-0.012870999053120613,-0.9511120319366455,-0.1900150030851364
3.8,0.2191716879606247,0.017176883295178413,-0.012117025442421436,-0.00823500007390976,-0.9469640254974365,-0.19050300121307373
3.82,0.1754971444606781,0.031024912372231483,-0.02703028731048107,-0.006283000111579895,-0.9469640254974365,-0.17879100143909454
3.84,0.08601756393909454,0.06298190355300903,-0.04833494871854782,0.0064354995265603065,-0.9445239901542664,-0.17952300608158112
3.86,-0.0001331541279796511,0.0778951644897461,-0.07496577501296997,0.0027754998300224543,-0.9484279751777649,-0.16951899230480194
3.88,-0.10346075892448425,0.11184946447610855,-0.07922670245170593,-0.012138999998569489,-0.9542840719223022,-0.18513499200344086
3.9,-0.17909230291843414,0.14274121820926666,-0.0717700719833374,-0.012138999998569489,-0.9542840719223022,-0.18513499200344086
3.92,-0.2259625494480133,0.1587197184562683,-0.05366111174225807,-0.025071000680327415,-0.9430599808692932,-0.19635899364948273
3.94,-0.24407151341438293,0.15232832729816437,-0.03874785080552101,-0.02778550237417221,-0.9609025120735168,-0.20785750448703766
3.96,-0.26431095600128174,0.13528458774089813,-0.00359516148455441,-0.03339749947190285,-0.9657825231552124,-0.22249749302864075
3.98,-0.23235395550727844,0.1288931965827942,0.011318100616335869,-0.03925349935889244,-0.9831064939498901,-0.2210334986448288
4,-0.15565717220306396,0.09600412845611572,0.011318100616335869,-0.029981501400470734,-0.9933850169181824,-0.22545598447322845
4.02,-0.0768299326300621,0.06937330216169357,0.000665770610794425,-0.01384699996560812,-0.98066645860672,-0.22423599660396576
4.04,-0.015046416781842709,0.041677240282297134,-0.012117025442421436,-0.01384699996560812,-0.98066645860672,-0.22423599660396576
4.06,0.009320789016783237,0.028894444927573204,-0.02596505545079708,0.0020435000769793987,-0.9606585502624512,-0.23253199458122253
4.08,-0.005459319334477186,0.008655018173158169,-0.04087831825017929,0.005703500006347895,-0.9411080479621887,-0.2479040026664734
4.1,-0.036351077258586884,0.0011983871227130294,-0.05792204663157463,0.021319499239325523,-0.9428160190582275,-0.2559864819049835
4.12,-0.05659050494432449,0.013981183059513569,-0.06963960826396942,0.029645999893546104,-0.9513559937477112,-0.24912399053573608
4.14,-0.08961272984743118,-0.001997311832383275,-0.06431344151496887,0.023759499192237854,-0.9616345167160034,-0.24570800364017487
4.16,-0.09174319356679916,0.008655018173158169,-0.05792204663157463,0.022051500156521797,-0.9674904942512512,-0.23131200671195984
4.18,-0.08854749798774719,-0.019041040912270546,-0.05366111174225807,0.004483500029891729,-0.9716385006904602,-0.2515944838523865
4.2,-0.06830807030200958,-0.045671865344047546,-0.05259587988257408,0.014731500297784805,-0.9604145288467407,-0.2530584931373596
4.22,-0.05232957378029823,-0.0712374597787857,-0.06218297779560089,0.020099500194191933,-0.9496479630470276,-0.2518385052680969
4.24,-0.027829213067889214,-0.10106398165225983,-0.06750914454460144,0.020099500194191933,-0.9496479630470276,-0.2518385052680969
4.26,0.0050598569214344025,-0.1255643367767334,-0.07922670245170593,0.009363500401377678,-0.9481840133666992,-0.2515944838523865
4.28,0.03595161437988281,-0.1351514458656311,-0.08348763734102249,0.009119500406086445,-0.9418400526046753,-0.2515944838523865
4.3,0.05512581020593643,-0.12876003980636597,-0.07816147059202194,0.009363500401377678,-0.9418400526046753,-0.24155999720096588
4.32,0.05938674136996269,-0.12982527911663055,-0.06750914454460144,0.002287500072270632,-0.9440360069274902,-0.2449759840965271
4.34,0.05725627392530441,-0.11597724258899689,-0.04407401755452156,-0.001891000079922378,-0.9498920440673828,-0.25058799982070923
4.36,0.04873441159725189,-0.1138467788696289,-0.03129122033715248,-0.0028669999446719885,-0.9513559937477112,-0.25232651829719543
4.38,0.04127778112888336,-0.12662957608699799,-0.0185084231197834,-0.0014029999729245901,-0.9479399919509888,-0.2513504922389984
4.4,0.05725627392530441,-0.14047759771347046,-0.004660394508391619,-0.008967000059783459,-0.9411080479621887,-0.2508319914340973
4.42,0.10412652790546417,-0.15006470680236816,0.01983996480703354,-0.012626999989151955,-0.9486719965934753,-0.24009600281715393
4.44,0.14993155002593994,-0.15432563424110413,0.03794892504811287,-0.01311499997973442,-0.9711505174636841,-0.22594399750232697
4.46,0.18934516608715057,-0.14793424308300018,0.06138405203819275,-0.022631000727415085,-1.0148874521255493,-0.20322149991989136
4.48,0.21384553611278534,-0.12769481539726257,0.07310161739587784,-0.02311900071799755,-1.0261114835739136,-0.1912350058555603
4.5,0.21597599983215332,-0.12023817747831345,0.08162347972393036,-0.014822999946773052,-1.0055850744247437,-0.1941629946231842
4.52,0.1968017965555191,-0.1149120107293129,0.09014534205198288,-0.00506300013512373,-0.9501360654830933,-0.204197496175766
4.54,0.1541924774646759,-0.10958584398031235,0.1199718713760376,-0.012138999998569489,-0.9288774728775024,-0.21737349033355713
4.56,0.12010502070188522,-0.0925421193242073,0.1306242048740387,-0.010919000022113323,-0.9247294664382935,-0.22054548561573029
4.58,0.09347419440746307,-0.047802332788705826,0.14553746581077576,-0.017506999894976616,-0.9433040022850037,-0.21420150995254517
4.6,0.07216953486204147,-0.007323476951569319,0.13701559603214264,-0.019214998930692673,-0.9618784785270691,-0.2017575055360794
4.62,0.06258244067430496,0.020372580736875534,0.10079767554998398,-0.006527000106871128,-0.964074432849884,-0.18123099207878113
4.64,0.07643046975135803,0.06404713541269302,0.004926702938973904,0.018391499295830727,-0.9564799666404724,-0.1597284972667694
4.66,0.09453943371772766,0.06937330216169357,-0.06644391268491745,0.018391499295830727,-0.9564799666404724,-0.1597284972667694
4.68,0.10625699162483215,0.06511236727237701,-0.13994498550891876,0.043554000556468964,-0.9520879983901978,-0.1533845067024231
4.7,0.11797455698251724,0.029959678649902344,-0.19320663809776306,0.06944850087165833,-0.9621224999427795,-0.15704450011253357
4.72,0.11584409326314926,-0.025432437658309937,-0.1687062829732895,0.06944850087165833,-0.9621224999427795,-0.15704450011253357
4.74,0.10625699162483215,-0.04673709720373154,-0.1346188187599182,0.053557999432086945,-0.9716385006904602,-0.16119250655174255
4.76,0.0689738392829895,-0.023301972076296806,-0.08774857223033905,0.014487499371170998,-0.966514527797699,-0.16900049149990082
4.78,0.04553871229290962,-0.038215234875679016,-0.08029194176197052,0.014487499371170998,-0.966514527797699,-0.16900049149990082
4.8,0.03488638252019882,-0.058454662561416626,-0.07816147059202194,0.033549997955560684,-0.9657825231552124,-0.1672924906015396
4.82,0.04340824484825134,-0.0723026916384697,-0.09733566641807556,0.04696999862790108,-0.9652945399284363,-0.1487485021352768
4.84,0.05086487531661987,-0.08615072071552277,-0.1260969638824463,0.05062999948859215,-0.9638304710388184,-0.14115400612354279
4.86,0.06151720881462097,-0.0936073511838913,-0.14846685528755188,0.049653999507427216,-0.9645625352859497,-0.15240849554538727
4.88,0.07216953486204147,-0.09786828607320786,-0.16444534063339233,0.047213997691869736,-0.9616345167160034,-0.15655648708343506
4.9,0.08495233207941055,-0.09467258304357529,-0.15911918878555298,0.04013799875974655,-0.9574559926986694,-0.16778050363063812
4.92,0.09666989743709564,-0.09573781490325928,-0.15485824644565582,0.03281800076365471,-0.95306396484375,-0.16485249996185303
4.94,0.11584409326314926,-0.09893351793289185,-0.14101022481918335,0.029158001765608788,-0.9450119733810425,-0.1487485021352768
4.96,0.14886631071567535,-0.0936073511838913,-0.11864032596349716,0.024491500109434128,-0.9511120319366455,-0.14313650131225586
4.98,0.18188853561878204,-0.08402025699615479,-0.09733566641807556,0.014975500293076038,-0.9574559926986694,-0.1340779960155487
5,0.20425842702388763,-0.061650361865758896,-0.06537867337465286,0.0000914999982342124,-0.9760304689407349,-0.12748999893665314
5.02,0.19467133283615112,-0.059519894421100616,-0.04726971685886383,0.0015554999699816108,-1.0009490251541138,-0.12382999807596207
5.04,0.18295377492904663,-0.07017222791910172,-0.05472634732723236,0.005459500011056662,-1.0068050622940063,-0.12407399713993073
5.06,0.1659100502729416,-0.08508548885583878,-0.07816147059202194,0.03184200078248978,-0.9809104800224304,-0.120169997215271
5.08,0.13714875280857086,-0.09467258304357529,-0.09520520269870758,0.04770199954509735,-0.9706624746322632,-0.12407399713993073
5.1,0.09453943371772766,-0.10958584398031235,-0.09627043455839157,0.06627649813890457,-0.9596824645996094,-0.1323700100183487
5.12,0.06790860742330551,-0.12449911236763,-0.08987903594970703,0.06871649622917175,-0.9569680094718933,-0.13798199594020844
5.14,0.06790860742330551,-0.13728190958499908,-0.08348763734102249,0.07115650177001953,-0.9609025120735168,-0.13725000619888306
5.16,0.06790860742330551,-0.12023817747831345,-0.0504654161632061,0.058468498289585114,-0.9726144671440125,-0.1352979987859726
5.18,0.07749570161104202,-0.1138467788696289,-0.01637795753777027,0.03525800257921219,-0.9894810318946838,-0.12700200080871582
5.2,0.1009308323264122,-0.13089050352573395,0.000665770610794425,0.030378000810742378,-0.9875290393829346,-0.12261000275611877
5.22,0.1318225860595703,-0.14899946749210358,0.012383334338665009,0.030378000810742378,-0.9875290393829346,-0.12261000275611877
5.24,0.15206201374530792,-0.1692388951778412,0.015579032711684704,0.03916200250387192,-0.9818865656852722,-0.12041400372982025
5.26,0.17762760818004608,-0.1894783228635788,0.008122402243316174,0.05038600042462349,-0.972370445728302,-0.11968199908733368
5.28,0.19254086911678314,-0.20865251123905182,-0.011051792651414871,0.05724850296974182,-0.9555040001869202,-0.11553400754928589
5.3,0.20425842702388763,-0.24380521476268768,-0.03768261894583702,0.06700850278139114,-0.9459880590438843,-0.10427950322628021
5.32,0.22023692727088928,-0.2938711643218994,-0.06857437640428543,0.07554849982261658,-0.9533079862594604,-0.09012749791145325
5.34,0.23088926076889038,-0.34180665016174316,-0.09627043455839157,0.09217099845409393,-0.9633424878120422,-0.06716100126504898
5.36,0.22662831842899323,-0.3886769115924835,-0.13035789132118225,0.09753900021314621,-0.9616345167160034,-0.06081699952483177
5.38,0.21597599983215332,-0.423829585313797,-0.1665758192539215,0.10071099549531937,-0.9552600383758545,-0.07106500118970871
5.4,0.18295377492904663,-0.3918725848197937,-0.19746756553649902,0.11757749319076538,-0.9506240487098694,-0.06325700134038925
5.42,0.1531272530555725,-0.44300377368927,-0.2113156020641327,0.12196950614452362,-0.9696865081787109,-0.07716500014066696
5.44,0.08601756393909454,-0.3609808385372162,-0.20811989903450012,0.10144300013780594,-1.0099769830703735,-0.07204099744558334
5.46,0.008255556225776672,-0.2864145338535309,-0.178293377161026,0.10315100103616714,-1.0700924396514893,-0.08350899815559387
5.48,-0.07469946891069412,-0.19800019264221191,-0.1559234857559204,0.09363500028848648,-1.1091630458831787,-0.09281149506568909
5.5,-0.12370018661022186,-0.15965180099010468,-0.14207544922828674,0.09363500028848648,-1.1091630458831787,-0.09281149506568909
5.52,-0.14287437498569489,-0.10958584398031235,-0.14953207969665527,0.08411899954080582,-1.0749725103378296,-0.0950075015425682
5.54,-0.1311568170785904,-0.08615072071552277,-0.16018441319465637,0.10437100380659103,-1.028063416481018,-0.09573949873447418
5.56,-0.10133028775453568,-0.048867564648389816,-0.1676410436630249,0.11245349794626236,-0.9946050047874451,-0.09378749877214432
5.58,-0.07363422960042953,-0.014780107885599136,-0.15166255831718445,0.10656700283288956,-0.9684664607048035,-0.09939949959516525
5.6,-0.0768299326300621,0.016111649572849274,-0.13035789132118225,0.09631899744272232,-0.9557480216026306,-0.1054994985461235
5.62,-0.09600412845611572,0.054460037499666214,-0.11864032596349716,0.09753900021314621,-0.9569680094718933,-0.10476750135421753
5.64,-0.13435252010822296,0.10971900075674057,-0.10159660130739212,0.09680700302124023,-0.9440360069274902,-0.10476750135421753
5.66,-0.18015754222869873,0.15445879101753235,-0.08348763734102249,0.10290699452161789,-0.9503800272941589,-0.10745150595903397
5.68,-0.21850591897964478,0.18641577661037445,-0.06537867337465286,0.11123350262641907,-0.966514527797699,-0.10964750498533249
5.7,-0.2813546657562256,0.23648172616958618,-0.03448691964149475,0.11147750169038773,-0.9777385592460632,-0.11062350869178772
5.72,-0.3314206302165985,0.28015628457069397,-0.01957365684211254,0.11611350625753403,-0.9875290393829346,-0.11553400754928589
5.74,-0.36124715209007263,0.31530898809432983,-0.013182258233428001,0.13270549476146698,-0.9904569983482361,-0.11626599729061127
5.76,-0.3889431953430176,0.3430050313472748,-0.02170412242412567,0.1361214965581894,-1.001924991607666,-0.12212200462818146
5.78,-0.4198349714279175,0.3430050313472748,-0.02596505545079708,0.14395999908447266,-1.010221004486084,-0.13676200807094574
5.8,-0.4059869349002838,0.3334179222583771,-0.039813082665205,0.14347200095653534,-0.9965570569038391,-0.11355149745941162
5.82,-0.3974650800228119,0.3728315532207489,-0.05366111174225807,0.15567199885845184,-0.9706624746322632,-0.09061549603939056
5.84,-0.33994248509407043,0.2684387266635895,-0.05685681104660034,0.1681465059518814,-0.9667584896087646,-0.10501150041818619
5.86,-0.2909417748451233,0.2354165017604828,-0.05366111174225807,0.16521848738193512,-0.9503800272941589,-0.11452750116586685
5.88,-0.27602851390838623,0.21943800151348114,-0.02170412242412567,0.1512800008058548,-0.9364719390869141,-0.14139799773693085
5.9,-0.2802894413471222,0.2119813710451126,0.010252867825329304,0.14615599811077118,-0.940619945526123,-0.16119250655174255
5.92,-0.2888112962245941,0.20026381313800812,0.0347532257437706,0.15567199885845184,-0.9413520693778992,-0.16704849898815155
5.94,-0.29520270228385925,0.19387240707874298,0.04860125854611397,0.15518400073051453,-0.9523320198059082,-0.17586299777030945
5.96,-0.2994636297225952,0.21091613173484802,0.04647079110145569,0.15152399241924286,-0.9789584875106812,-0.1802549958229065
5.98,-0.30478981137275696,0.2247641682624817,0.03581846132874489,0.15274399518966675,-0.9911889433860779,-0.18440300226211548
6,-0.29413747787475586,0.22795987129211426,0.02090519852936268,0.1442040055990219,-0.9833505153656006,-0.1878190040588379
6.02,-0.2557890713214874,0.21624229848384857,0.009187635034322739,0.1373720020055771,-0.9699305295944214,-0.18903900682926178
6.04,-0.21317975223064423,0.191741943359375,0.008122402243316174,0.1256294995546341,-0.9428160190582275,-0.1936749964952469
6.06,-0.15672241151332855,0.16511112451553345,0.011318100616335869,0.12050550431013107,-0.9193615317344666,-0.19931749999523163
6.08,-0.12583065032958984,0.14700216054916382,0.02197043038904667,0.12343350052833557,-0.9154574871063232,-0.20224550366401672
6.1,-0.10985215753316879,0.13528458774089813,0.03368799388408661,0.12392149865627289,-0.9147255420684814,-0.20980948209762573
6.12,-0.11198262125253677,0.12250179797410965,0.03368799388408661,0.12123750150203705,-0.9198495149612427,-0.21615348756313324
6.14,-0.1194392517209053,0.11397993564605713,0.03581846132874489,0.12587350606918335,-0.9239975214004517,-0.22249749302864075
6.16,-0.12370018661022186,0.0981345921754837,0.03581846132874489,0.1307535022497177,-0.931835949420929,-0.22594399750232697
6.18,-0.11091738939285278,0.08215609937906265,0.04647079110145569,0.1214815080165863,-0.9357399940490723,-0.2239920049905777
6.2,-0.10346075892448425,0.066177599132061,0.05392742156982422,0.11904150247573853,-0.9394000172615051,-0.2327760010957718
6.22,-0.09067796170711517,0.044872939586639404,0.06884068250656128,0.11269749701023102,-0.940619945526123,-0.23082399368286133
6.24,-0.07576470077037811,0.026763979345560074,0.07097115367650986,0.11196549981832504,-0.9376920461654663,-0.236191987991333
6.26,-0.06404713541269302,0.008655018173158169,0.07203638553619385,0.11611350625753403,-0.9408639669418335,-0.24107199907302856
6.28,-0.043807707726955414,-0.008388710208237171,0.07203638553619385,0.11830950528383255,-0.9394000172615051,-0.23399598896503448
6.3,-0.03209014609456062,-0.021171506494283676,0.07949301600456238,0.11464949697256088,-0.9425719976425171,-0.22789600491523743
6.32,-0.026763979345560074,-0.016910573467612267,0.07629731297492981,0.11098949611186981,-0.9411080479621887,-0.24229200184345245
6.34,-0.029959678649902344,-0.011584409512579441,0.07842778414487839,0.10559099912643433,-0.9425719976425171,-0.247172012925148
6.36,-0.041677240282297134,-0.001997311832383275,0.08375394344329834,0.09509900212287903,-0.9413520693778992,-0.24765999615192413
6.38,-0.043807707726955414,0.008655018173158169,0.09227581322193146,0.09509900212287903,-0.9413520693778992,-0.24765999615192413
6.4,-0.037416309118270874,0.016111649572849274,0.08694964647293091,0.09753900021314621,-0.9415960311889648,-0.23692399263381958
6.42,-0.028894444927573204,0.023568280041217804,0.08162347972393036,0.09680700302124023,-0.9359839558601379,-0.23692399263381958
6.44,-0.028894444927573204,0.050199106335639954,0.08375394344329834,0.0836310014128685,-0.9391559958457947,-0.2396080046892166
6.46,-0.025698747485876083,0.09067796170711517,0.09440627694129944,0.07530450075864792,-0.929609477519989,-0.23424001038074493
6.48,-0.017176883295178413,0.12995843589305878,0.11251524090766907,0.057004500180482864,-0.9164334535598755,-0.23082399368286133
6.5,-0.023568280041217804,0.16724158823490143,0.1316894292831421,0.047213997691869736,-0.9007869958877563,-0.24058398604393005
6.52,-0.033155377954244614,0.18535055220127106,0.1306242048740387,0.05160599946975708,-0.8929789662361145,-0.2537904977798462
6.54,-0.03528584539890289,0.18322007358074188,0.10186290740966797,0.06115249916911125,-0.8776070475578308,-0.25915849208831787
6.56,-0.027829213067889214,0.20452474057674408,0.07097115367650986,0.06822849810123444,-0.8983469605445862,-0.27501851320266724
6.58,-0.03848154470324516,0.21624229848384857,0.04007939249277115,0.0819230005145073,-0.9418400526046753,-0.28602898120880127
6.6,-0.024633513763546944,0.23009033501148224,-0.006790860556066036,0.09509900212287903,-0.9782265424728394,-0.305061012506485
6.62,-0.008655018173158169,0.2130466103553772,0.0017310036346316338,0.08018450438976288,-1.0239155292510986,-0.30359700322151184
6.64,-0.007589785382151604,0.20772044360637665,0.02729659713804722,0.07164449989795685,-1.0370914936065674,-0.28432101011276245
6.66,-0.018242115154862404,0.16191542148590088,0.09547150880098343,0.06359250098466873,-1.0085129737854004,-0.2806609869003296
6.68,-0.024633513763546944,0.12037133425474167,0.1295589655637741,0.07384049892425537,-0.9357399940490723,-0.2676984965801239
6.7,-0.03528584539890289,0.08961272984743118,0.13595037162303925,0.08704700320959091,-0.9059415459632874,-0.2635504901409149
6.72,-0.047003407031297684,0.05978620424866676,0.1199718713760376,0.08704700320959091,-0.9059415459632874,-0.2635504901409149
6.74,-0.048068638890981674,0.008655018173158169,0.07629731297492981,0.09753900021314621,-0.8937109708786011,-0.27331048250198364
6.76,-0.053394805639982224,-0.020106272771954536,0.03688369318842888,0.1105014979839325,-0.9044774770736694,-0.2879810035228729
6.78,-0.07043853402137756,-0.020106272771954536,-0.005725627299398184,0.11538149416446686,-0.9169214963912964,-0.3075315058231354
6.8,-0.07469946891069412,-0.059519894421100616,-0.06005251035094261,0.13859198987483978,-0.9415960311889648,-0.3133874833583832
6.82,-0.07043853402137756,-0.0723026916384697,-0.05472634732723236,0.12806950509548187,-0.9699305295944214,-0.30530500411987305
6.84,-0.054460037499666214,-0.11171631515026093,-0.02703028731048107,0.09973499923944473,-0.9616345167160034,-0.30826348066329956
6.86,-0.027829213067889214,-0.14260807633399963,-0.013182258233428001,0.09070699661970139,-0.9452559351921082,-0.30408498644828796
6.88,-0.007589785382151604,-0.17563030123710632,-0.007856093347072601,0.09461100399494171,-0.933788001537323,-0.30018100142478943
6.9,0.002929390873759985,-0.20652204751968384,-0.008921326138079166,0.09046300500631332,-0.9237534999847412,-0.3014010190963745
6.92,0.010386021807789803,-0.2097177505493164,-0.01957365684211254,0.08607099950313568,-0.9203374981880188,-0.3080194890499115
6.94,0.03169068321585655,-0.1990654170513153,-0.0238345880061388,0.07920850068330765,-0.9266815185546875,-0.29310500621795654
6.96,0.029560215771198273,-0.17136935889720917,-0.02596505545079708,0.06798449903726578,-0.94623202085495,-0.2799290120601654
6.98,0.024234050884842873,-0.13408620655536652,-0.01637795753777027,0.07286449521780014,-0.9518439769744873,-0.28968900442123413
7,0.014646953903138638,-0.10958584398031235,0.0038614696823060513,0.049897998571395874,-0.9513559937477112,-0.28846901655197144
7.02,0.009320789016783237,-0.0712374597787857,0.03688369318842888,0.045993998646736145,-0.9459880590438843,-0.288224995136261
7.04,0.010386021807789803,-0.04673709720373154,0.06564498692750931,0.03135399892926216,-0.9476959705352783,-0.28432101011276245
7.06,0.023168819025158882,-0.009453942999243736,0.10718907415866852,0.023271499201655388,-0.9511120319366455,-0.2781904935836792
7.08,0.024234050884842873,0.025698747485876083,0.14979839324951172,-0.0026229999493807554,-0.9484279751777649,-0.28139299154281616
7.1,0.017842652276158333,0.08641702681779861,0.222101092338562,-0.0026229999493807554,-0.9484279751777649,-0.28139299154281616
7.12,0.010386021807789803,0.1278279572725296,0.2338186502456665,0.020831499248743057,-0.9963130354881287,-0.24644000828266144
7.14,0.013581721112132072,0.17363297939300537,0.21797330677509308,0.020831499248743057,-0.9963130354881287,-0.24644000828266144
7.16,0.021038351580500603,0.19919857382774353,0.205190509557724,0.024735501036047935,-0.9437919855117798,-0.2281399965286255
7.18,0.017842652276158333,0.20772044360637665,0.18708154559135437,0.029401998966932297,-0.9130174517631531,-0.23424001038074493
7.2,0.0018641578499227762,0.20878566801548004,0.1508636325597763,0.05136200040578842,-0.8934669494628906,-0.2483920156955719
7.22,-0.022503048181533813,0.2226337045431137,0.10612384229898453,0.07872050255537033,-0.9178975224494934,-0.26037850975990295
7.24,-0.037416309118270874,0.22689463198184967,0.06457975506782532,0.09265900403261185,-0.9508680105209351,-0.2537904977798462
7.26,-0.036351077258586884,0.22156846523284912,0.05499265342950821,0.09802700579166412,-0.9728584289550781,-0.2483920156955719
7.28,-0.031024912372231483,0.19813334941864014,0.07097115367650986,0.07847649604082108,-0.9674904942512512,-0.23521599173545837
7.3,-0.019307348877191544,0.15126308798789978,0.07097115367650986,0.08411899954080582,-0.9594384431838989,-0.2391199916601181
7.32,-0.0011983871227130294,0.1065233051776886,0.05286218971014023,0.09656299650669098,-0.9401319622993469,-0.22838400304317474
7.34,0.011451254598796368,0.066177599132061,0.03581846132874489,0.10217500478029251,-0.9281455278396606,-0.22249749302864075
7.36,0.008255556225776672,0.04274247586727142,0.02516612969338894,0.10193099826574326,-0.9313479661941528,-0.23668000102043152
7.38,-0.010785484686493874,0.009720250964164734,0.008122402243316174,0.09534300118684769,-0.9372040629386902,-0.2503439784049988
7.4,-0.033155377954244614,-0.001997311832383275,-0.013182258233428001,0.09851499646902084,-0.9469640254974365,-0.25058799982070923
7.42,-0.054460037499666214,-0.008388710208237171,-0.04940018057823181,0.09436699748039246,-0.9484279751777649,-0.2542785108089447
7.44,-0.0555252730846405,-0.014780107885599136,-0.07603100687265396,0.09387899935245514,-0.9354959726333618,-0.2508319914340973
7.46,-0.03528584539890289,-0.029693370684981346,-0.08987903594970703,0.08582700043916702,-0.9198495149612427,-0.24155999720096588
7.48,0.0007989247678779066,-0.042476166039705276,-0.08455286920070648,0.07750049978494644,-0.9161894917488098,-0.24058398604393005
7.5,0.025299284607172012,-0.042476166039705276,-0.07922670245170593,0.07359649986028671,-0.9205814599990845,-0.24473199248313904
7.52,0.05512581020593643,-0.044606633484363556,-0.06750914454460144,0.06334850192070007,-0.9310735464096069,-0.24351198971271515
7.54,0.09560466557741165,-0.057389430701732635,-0.05792204663157463,0.055784497410058975,-0.9469640254974365,-0.23424001038074493
7.56,0.12543119490146637,-0.06484606117010117,-0.04833494871854782,0.05404600128531456,-0.9618784785270691,-0.23131200671195984
7.58,0.13501828908920288,-0.06591129302978516,-0.05259587988257408,0.052094001322984695,-0.9779825210571289,-0.22472400963306427
7.6,0.11477886140346527,-0.08508548885583878,-0.06218297779560089,0.06969249993562698,-0.9948489665985107,-0.2298480123281479
7.62,0.08175663650035858,-0.10958584398031235,-0.08561810106039047,0.08851099759340286,-0.9818865656852722,-0.23375199735164642
7.64,0.03382114693522453,-0.14367330074310303,-0.10798799991607666,0.1016869992017746,-0.9528200030326843,-0.2454639971256256
7.66,-0.013981183059513569,-0.17243459820747375,-0.11331415921449661,0.1080310046672821,-0.9352520108222961,-0.24473199248313904
7.68,-0.07043853402137756,-0.2001306563615799,-0.11970555782318115,0.10851900279521942,-0.929609477519989,-0.25696250796318054
7.7,-0.0991998240351677,-0.210782989859581,-0.11118369549512863,0.10559099912643433,-0.9403759837150574,-0.2640385031700134
7.72,-0.10133028775453568,-0.20545682311058044,-0.10053136944770813,0.09192699939012527,-0.9484279751777649,-0.2676984965801239
7.74,-0.08428656309843063,-0.2001306563615799,-0.09413997083902359,0.0806724950671196,-0.9513559937477112,-0.26574650406837463
7.76,-0.054460037499666214,-0.1884130984544754,-0.08561810106039047,0.07335250079631805,-0.9498920440673828,-0.26281848549842834
7.78,-0.011850717477500439,-0.19160878658294678,-0.08348763734102249,0.0701805055141449,-0.9428160190582275,-0.260622501373291
7.8,0.027429750189185143,-0.1894783228635788,-0.0824224054813385,0.06749650090932846,-0.9411080479621887,-0.2576945126056671
7.82,0.05193011090159416,-0.18202169239521027,-0.08561810106039047,0.06481250375509262,-0.9413520693778992,-0.2576945126056671
7.84,0.05619104206562042,-0.1692388951778412,-0.08348763734102249,0.0731084942817688,-0.9455000758171082,-0.25452250242233276
7.86,0.03488638252019882,-0.1585865616798401,-0.08881380409002304,0.07359649986028671,-0.9435479640960693,-0.25403448939323425
7.88,0.012516488321125507,-0.1468690037727356,-0.08881380409002304,0.08509500324726105,-0.9423280358314514,-0.25525447726249695
7.9,-0.013981183059513569,-0.13195574283599854,-0.0824224054813385,0.08680299669504166,-0.9474520087242126,-0.25452250242233276
7.92,-0.041677240282297134,-0.1138467788696289,-0.06963960826396942,0.08241099864244461,-0.9472079873085022,-0.260622501373291
7.94,-0.054460037499666214,-0.1031944528222084,-0.06644391268491745,0.08091650158166885,-0.9430599808692932,-0.26037850975990295
7.96,-0.051264338195323944,-0.09786828607320786,-0.05685681104660034,0.08509500324726105,-0.9415960311889648,-0.2613545060157776
7.98,-0.04913387447595596,-0.09680305421352386,-0.05472634732723236,0.08314299583435059,-0.9428160190582275,-0.26159849762916565
8,-0.041677240282297134,-0.09147688746452332,-0.0504654161632061,0.08241099864244461,-0.9428160190582275,-0.26330649852752686
8.02,-0.03209014609456062,-0.0829550251364708,-0.04407401755452156,0.07969649881124496,-0.9362279772758484,-0.26623451709747314
8.04,-0.019307348877191544,-0.07656362652778625,-0.03874785080552101,0.08265500515699387,-0.9428160190582275,-0.2689184844493866
8.06,-0.009720250964164734,-0.06910699605941772,-0.03768261894583702,0.08802299946546555,-0.9362279772758484,-0.2659904956817627
8.08,-0.0001331541279796511,-0.05632419511675835,-0.03129122033715248,0.09095099568367004,-0.9362279772758484,-0.26745450496673584
8.1,0.0007989247678779066,-0.048867564648389816,-0.02596505545079708,0.08899899572134018,-0.9386680126190186,-0.2672105133533478
8.12,-0.005459319334477186,-0.041410934180021286,-0.0185084231197834,0.09021900594234467,-0.9347639679908752,-0.272334486246109
8.14,-0.016111649572849274,-0.031823836266994476,-0.01637795753777027,0.08997499942779541,-0.9362279772758484,-0.27895301580429077
8.16,-0.013981183059513569,-0.027562905102968216,-0.015312724746763706,0.09070699661970139,-0.9374480247497559,-0.2774584889411926
8.18,-0.011850717477500439,-0.013714875094592571,-0.014247491955757141,0.0929030030965805,-0.9345200061798096,-0.2747745215892792
8.2,-0.006524552125483751,-0.004127778112888336,-0.013182258233428001,0.09387899935245514,-0.9347639679908752,-0.2698945105075836
8.22,-0.008655018173158169,0.005459319334477186,-0.014247491955757141,0.09046300500631332,-0.9354959726333618,-0.27331048250198364
8.24,-0.011850717477500439,0.010785484686493874,-0.008921326138079166,0.09192699939012527,-0.9384239912033081,-0.2769705057144165
8.26,-0.016111649572849274,0.011850717477500439,-0.008921326138079166,0.09485500305891037,-0.9350079894065857,-0.2787089943885803
8.28,-0.016111649572849274,0.011850717477500439,-0.005725627299398184,0.095830999314785,-0.9335440397262573,-0.2747745215892792
8.3,-0.022503048181533813,0.022503048181533813,0.000665770610794425,0.095830999314785,-0.9335440397262573,-0.2769705057144165
8.32,-0.022503048181533813,0.029959678649902344,0.0017310036346316338,0.09387899935245514,-0.9357399940490723,-0.27843451499938965
8.34,-0.026763979345560074,0.037416309118270874,0.000665770610794425,0.09729500114917755,-0.9386680126190186,-0.28261297941207886
8.36,-0.020372580736875534,0.03954677656292915,0.0017310036346316338,0.09778299927711487,-0.9425719976425171,-0.28017300367355347
8.38,-0.020372580736875534,0.03848154470324516,-0.004660394508391619,0.095830999314785,-0.9413520693778992,-0.28212499618530273
8.4,-0.024633513763546944,0.03954677656292915,-0.004660394508391619,0.09607499837875366,-0.9389119744300842,-0.27794650197029114
8.42,-0.025698747485876083,0.040612008422613144,-0.004660394508391619,0.09802700579166412,-0.9342759847640991,-0.27919700741767883
8.44,-0.027829213067889214,0.04274247586727142,-0.0003994623839389533,0.09217099845409393,-0.9340320229530334,-0.28139299154281616
8.46,-0.03528584539890289,0.041677240282297134,0.0017310036346316338,0.09387899935245514,-0.9396439790725708,-0.2787089943885803
8.48,-0.044872939586639404,0.041677240282297134,0.0038614696823060513,0.0894870012998581,-0.9423280358314514,-0.27794650197029114
8.5,-0.03848154470324516,0.037416309118270874,0.004926702938973904,0.08875499665737152,-0.9418400526046753,-0.28212499618530273
8.52,-0.031024912372231483,0.03528584539890289,0.010252867825329304,0.09314699470996857,-0.9464760422706604,-0.2769705057144165
8.54,-0.024633513763546944,0.031024912372231483,0.011318100616335869,0.08338699489831924,-0.9476959705352783,-0.2752625048160553
8.56,-0.025698747485876083,0.025698747485876083,0.01877473294734955,0.08116050064563751,-0.9540400505065918,-0.27331048250198364
8.58,-0.031024912372231483,0.024633513763546944,0.01983996480703354,0.07969649881124496,-0.9547720551490784,-0.2698945105075836
8.6,-0.028894444927573204,0.016111649572849274,0.01877473294734955,0.08018450438976288,-0.9525759816169739,-0.2630625069141388
8.62,-0.022503048181533813,0.007589785382151604,0.02090519852936268,0.0777445062994957,-0.9459880590438843,-0.25745052099227905
8.64,-0.015046416781842709,0.010785484686493874,0.02090519852936268,0.07701250165700912,-0.9455000758171082,-0.2630625069141388
8.66,-0.017176883295178413,0.015046416781842709,0.02410089783370495,0.07750049978494644,-0.942084014415741,-0.260622501373291
8.68,-0.020372580736875534,0.018242115154862404,0.02729659713804722,0.0748165026307106,-0.9467200040817261,-0.2655025124549866
8.7,-0.017176883295178413,0.024633513763546944,0.03049229457974434,0.0701805055141449,-0.9450119733810425,-0.2579385042190552
8.72,-0.007589785382151604,0.022503048181533813,0.02942706272006035,0.07701250165700912,-0.9418400526046753,-0.25867050886154175
8.74,0.0007989247678779066,0.017176883295178413,0.02942706272006035,0.07530450075864792,-0.9374480247497559,-0.25915849208831787
8.76,0.009320789016783237,0.016111649572849274,0.02942706272006035,0.07530450075864792,-0.9374480247497559,-0.25915849208831787
8.78,0.014646953903138638,0.010785484686493874,0.03049229457974434,0.07701250165700912,-0.9364719390869141,-0.25647449493408203
8.8,0.012516488321125507,0.010785484686493874,0.02942706272006035,0.07579249888658524,-0.940619945526123,-0.25745052099227905
8.82,-0.00226362026296556,0.006524552125483751,0.02623136341571808,0.07798849791288376,-0.9403759837150574,-0.26037850975990295
8.84,-0.0001331541279796511,0.005459319334477186,0.02303566411137581,0.07335250079631805,-0.942084014415741,-0.26086652278900146
8.86,0.0007989247678779066,0.0033288532868027687,0.01983996480703354,0.07798849791288376,-0.9396439790725708,-0.25745052099227905
8.88,0.0061250897124409676,0.006524552125483751,0.01770949922502041,0.07457250356674194,-0.9413520693778992,-0.25915849208831787
8.9,0.012516488321125507,0.006524552125483751,0.008122402243316174,0.0701805055141449,-0.942084014415741,-0.2576945126056671
8.92,0.009320789016783237,0.008655018173158169,0.0038614696823060513,0.07432850450277328,-0.933788001537323,-0.2589145004749298
8.94,0.014646953903138638,0.007589785382151604,-0.0025299284607172012,0.07432850450277328,-0.933788001537323,-0.2589145004749298
8.96,0.019973119720816612,0.00226362026296556,-0.006790860556066036,0.07798849791288376,-0.9342759847640991,-0.25525447726249695
8.98,0.013581721112132072,0.004394086077809334,-0.012117025442421436,0.08091650158166885,-0.9423280358314514,-0.2589145004749298
9,0.0050598569214344025,-0.007323476951569319,-0.01744319126009941,0.08091650158166885,-0.9423280358314514,-0.2589145004749298
9.02,0.002929390873759985,-0.014780107885599136,-0.015312724746763706,0.0777445062994957,-0.9359839558601379,-0.25745052099227905
9.04,0.002929390873759985,-0.015845341607928276,-0.0185084231197834,0.08018450438976288,-0.9357399940490723,-0.25452250242233276
9.06,0.0007989247678779066,-0.021171506494283676,-0.01957365684211254,0.08140449970960617,-0.9313479661941528,-0.26086652278900146
9.08,0.00399462366476655,-0.022236740216612816,-0.02063889056444168,0.07920850068330765,-0.9279015064239502,-0.2576945126056671
9.1,0.017842652276158333,-0.026497671380639076,-0.015312724746763706,0.07384049892425537,-0.9286335110664368,-0.25330251455307007
9.12,0.03275591507554054,-0.023301972076296806,-0.011051792651414871,0.07237650454044342,-0.9305854439735413,-0.2518385052680969
9.14,0.04447348043322563,-0.022236740216612816,-0.011051792651414871,0.07237650454044342,-0.9435479640960693,-0.25574249029159546
9.16,0.05299534276127815,-0.024367205798625946,-0.015312724746763706,0.07335250079631805,-0.9520879983901978,-0.2623305022716522
9.18,0.05725627392530441,-0.025432437658309937,-0.01744319126009941,0.07457250356674194,-0.9540400505065918,-0.25818249583244324
9.2,0.0583215095102787,-0.03608476743102074,-0.02170412242412567,0.07530450075864792,-0.9574559926986694,-0.2537904977798462
9.22,0.06151720881462097,-0.044606633484363556,-0.015312724746763706,0.07457250356674194,-0.9564799666404724,-0.25281450152397156
9.24,0.05725627392530441,-0.052063263952732086,-0.0003994623839389533,0.07701250165700912,-0.9579439759254456,-0.25058799982070923
9.26,0.05938674136996269,-0.05632419511675835,0.004926702938973904,0.07628049701452255,-0.9498920440673828,-0.25403448939323425
9.28,0.05299534276127815,-0.052063263952732086,0.015579032711684704,0.07506050169467926,-0.9445239901542664,-0.25330251455307007
9.3,0.04447348043322563,-0.04993279650807381,0.01983996480703354,0.07359649986028671,-0.9479399919509888,-0.25867050886154175
9.32,0.03914731368422508,-0.04673709720373154,0.01770949922502041,0.07091249525547028,-0.9503800272941589,-0.2554984986782074
9.34,0.03914731368422508,-0.043541401624679565,0.014513799920678139,0.0701805055141449,-0.9503800272941589,-0.2579385042190552
9.36,0.04447348043322563,-0.040345702320337296,0.010252867825329304,0.07408449798822403,-0.9457440376281738,-0.25623050332069397
9.38,0.04447348043322563,-0.031823836266994476,0.010252867825329304,0.0760364979505539,-0.9525759816169739,-0.25403448939323425
9.4,0.03808208182454109,-0.027562905102968216,0.009187635034322739,0.07798849791288376,-0.9562360048294067,-0.25867050886154175
9.42,0.03914731368422508,-0.019041040912270546,0.010252867825329304,0.07262050360441208,-0.9559919834136963,-0.2547664940357208
9.44,0.024234050884842873,-0.010519175790250301,0.008122402243316174,0.0777445062994957,-0.9476959705352783,-0.25867050886154175
9.46,0.012516488321125507,-0.012649642303586006,0.000665770610794425,0.0853390023112297,-0.9479399919509888,-0.25647449493408203
9.48,0.0061250897124409676,0.0011983871227130294,-0.0003994623839389533,0.08460699766874313,-0.9394000172615051,-0.2647705078125
9.5,-0.00226362026296556,0.011850717477500439,-0.004660394508391619,0.086558997631073,-0.9384239912033081,-0.26501449942588806
9.52,-0.008655018173158169,0.020372580736875534,-0.008921326138079166,0.08704700320959091,-0.937936007976532,-0.2659904956817627
9.54,-0.008655018173158169,0.029959678649902344,-0.014247491955757141,0.09095099568367004,-0.940619945526123,-0.26867449283599854
9.56,-0.008655018173158169,0.031024912372231483,-0.011051792651414871,0.09387899935245514,-0.9418400526046753,-0.2676984965801239
9.58,-0.0033288532868027687,0.03209014609456062,-0.004660394508391619,0.09387899935245514,-0.9418400526046753,-0.2676984965801239
9.6,0.0050598569214344025,0.028894444927573204,-0.0014646954368799925,0.09339100122451782,-0.9352520108222961,-0.2642824947834015
9.62,0.016777420416474342,0.028894444927573204,0.0017310036346316338,0.09021900594234467,-0.9418400526046753,-0.260622501373291
9.64,0.019973119720816612,0.025698747485876083,0.008122402243316174,0.09387899935245514,-0.9398880004882812,-0.2584264874458313
9.66,0.025299284607172012,0.027829213067889214,0.011318100616335869,0.09070699661970139,-0.9418400526046753,-0.26037850975990295
9.68,0.024234050884842873,0.023568280041217804,0.009187635034322739,0.09046300500631332,-0.9455000758171082,-0.25818249583244324
9.7,0.017842652276158333,0.029959678649902344,0.005991935729980469,0.09070699661970139,-0.9384239912033081,-0.25915849208831787
9.72,0.013581721112132072,0.023568280041217804,-0.0025299284607172012,0.0929030030965805,-0.9455000758171082,-0.2640385031700134
9.74,0.010386021807789803,0.023568280041217804,-0.0003994623839389533,0.09265900403261185,-0.9442799687385559,-0.2596465051174164
9.76,0.0007989247678779066,0.021437814459204674,-0.00359516148455441,0.1004670038819313,-0.9476959705352783,-0.263794481754303
9.78,-0.004394086077809334,0.015046416781842709,-0.005725627299398184,0.1033950001001358,-0.9428160190582275,-0.26452648639678955
9.8,-0.006524552125483751,0.006524552125483751,-0.009986559860408306,0.10363900661468506,-0.942084014415741,-0.2642824947834015
9.82,-0.010785484686493874,-0.0009320789249613881,-0.012117025442421436,0.1033950001001358,-0.9396439790725708,-0.26574650406837463
9.84,-0.013981183059513569,-0.007323476951569319,-0.013182258233428001,0.10681100934743881,-0.937936007976532,-0.26916250586509705
9.86,-0.015046416781842709,-0.012649642303586006,-0.01744319126009941,0.10510299354791641,-0.9394000172615051,-0.2774584889411926
9.88,-0.012915950268507004,-0.011584409512579441,-0.01744319126009941,0.10510299354791641,-0.9394000172615051,-0.2774584889411926
9.9,-0.008655018173158169,-0.013714875094592571,-0.02063889056444168,0.10412700474262238,-0.9430599808692932,-0.2684305012226105
9.92,-0.008655018173158169,-0.019041040912270546,-0.0238345880061388,0.09973499923944473,-0.9354959726333618,-0.2684305012226105
9.94,-0.005459319334477186,-0.025432437658309937,-0.02596505545079708,0.10363900661468506,-0.9354959726333618,-0.2713584899902344
9.96,-0.00226362026296556,-0.027562905102968216,-0.02596505545079708,0.10241899639368057,-0.9398880004882812,-0.2672105133533478
9.98,-0.00226362026296556,-0.026497671380639076,-0.02276935614645481,0.10241899639368057,-0.9398880004882812,-0.2672105133533478
10,-0.008655018173158169,-0.027562905102968216,-0.02489982172846794,0.1046149954199791,-0.9381800293922424,-0.2647705078125
10.02,-0.012915950268507004,-0.026497671380639076,-0.0238345880061388,0.09949100017547607,-0.9445239901542664,-0.26330649852752686
10.04,-0.009720250964164734,-0.025432437658309937,-0.01637795753777027,0.09436699748039246,-0.9386680126190186,-0.2640385031700134
10.06,-0.011850717477500439,-0.031823836266994476,-0.01744319126009941,0.09729500114917755,-0.9372040629386902,-0.26208651065826416
10.08,-0.009720250964164734,-0.028628136962652206,-0.01637795753777027,0.09729500114917755,-0.9372040629386902,-0.26208651065826416
10.1,-0.00226362026296556,-0.025432437658309937,-0.01637795753777027,0.09973499923944473,-0.9384239912033081,-0.2635504901409149
10.12,-0.0033288532868027687,-0.024367205798625946,-0.013182258233428001,0.09827099740505219,-0.9359839558601379,-0.2630625069141388
10.14,-0.0001331541279796511,-0.016910573467612267,-0.012117025442421436,0.09778299927711487,-0.9359839558601379,-0.2635504901409149
10.16,0.00719032296910882,-0.017975807189941406,-0.009986559860408306,0.09534300118684769,-0.9374480247497559,-0.2613545060157776
10.18,0.0050598569214344025,-0.012649642303586006,-0.008921326138079166,0.09436699748039246,-0.9408639669418335,-0.2618425190448761
10.2,0.009320789016783237,-0.009453942999243736,-0.004660394508391619,0.09436699748039246,-0.9408639669418335,-0.2618425190448761
10.22,0.00719032296910882,-0.008388710208237171,-0.0025299284607172012,0.0987589955329895,-0.9350079894065857,-0.2611105144023895
10.24,0.0061250897124409676,-0.0030625448562204838,-0.0025299284607172012,0.0987589955329895,-0.9350079894065857,-0.2611105144023895
10.26,0.00399462366476655,-0.006258244160562754,-0.00359516148455441,0.09387899935245514,-0.9413520693778992,-0.25989049673080444
10.28,-0.0001331541279796511,0.00226362026296556,0.000665770610794425,0.09387899935245514,-0.9413520693778992,-0.25989049673080444
10.3,-0.005459319334477186,0.011850717477500439,0.0017310036346316338,0.09461100399494171,-0.9418400526046753,-0.263794481754303
10.32,-0.007589785382151604,0.016111649572849274,0.007057168986648321,0.09143900126218796,-0.9413520693778992,-0.26623451709747314
10.34,-0.0033288532868027687,0.018242115154862404,0.007057168986648321,0.09485500305891037,-0.9413520693778992,-0.25818249583244324
10.36,-0.004394086077809334,0.019307348877191544,0.012383334338665009,0.08973100036382675,-0.9389119744300842,-0.2589145004749298
10.38,0.00719032296910882,0.025698747485876083,0.02197043038904667,0.08973100036382675,-0.9389119744300842,-0.2589145004749298
10.4,0.015712186694145203,0.023568280041217804,0.02942706272006035,0.09217099845409393,-0.942084014415741,-0.2550104856491089
10.42,0.021038351580500603,0.026763979345560074,0.03368799388408661,0.09168300032615662,-0.9464760422706604,-0.2537904977798462
10.44,0.03595161437988281,0.027829213067889214,0.03901416063308716,0.08582700043916702,-0.9508680105209351,-0.24936801195144653
10.46,0.04447348043322563,0.028894444927573204,0.05286218971014023,0.0819230005145073,-0.9501360654830933,-0.24814799427986145
10.48,0.05406057462096214,0.025698747485876083,0.05499265342950821,0.08241099864244461,-0.9445239901542664,-0.23594799637794495
10.5,0.06151720881462097,0.025698747485876083,0.06244928762316704,0.08241099864244461,-0.9445239901542664,-0.23594799637794495
10.52,0.06577813625335693,0.023568280041217804,0.06244928762316704,0.07701250165700912,-0.9452559351921082,-0.2396080046892166
10.54,0.06577813625335693,0.021437814459204674,0.07203638553619385,0.07359649986028671,-0.9484279751777649,-0.2374119907617569
10.56,0.07216953486204147,0.022503048181533813,0.07310161739587784,0.07457250356674194,-0.9491599798202515,-0.2281399965286255
10.58,0.08282186836004257,0.023568280041217804,0.07523208111524582,0.0748165026307106,-0.9501360654830933,-0.2320440113544464
10.6,0.08495233207941055,0.021437814459204674,0.07203638553619385,0.07115650177001953,-0.9469640254974365,-0.23253199458122253
10.62,0.08388710021972656,0.021437814459204674,0.06244928762316704,0.06871649622917175,-0.9537959694862366,-0.230335995554924
10.64,0.08388710021972656,0.018242115154862404,0.05925358831882477,0.06749650090932846,-0.9472079873085022,-0.22298550605773926
10.66,0.08282186836004257,0.015046416781842709,0.05392742156982422,0.06774049997329712,-0.957211971282959,-0.2227414846420288
10.68,0.07962616533041,0.017176883295178413,0.04860125854611397,0.0701805055141449,-0.9562360048294067,-0.2257000058889389
10.7,0.07430000603199005,0.012915950268507004,0.04114462435245514,0.06896050274372101,-0.9604145288467407,-0.22127750515937805
10.72,0.07110430300235748,0.015046416781842709,0.03155753016471863,0.06652049720287323,-0.9645625352859497,-0.22200950980186462
10.74,0.06684337556362152,0.008655018173158169,0.02623136341571808,0.06774049997329712,-0.9594384431838989,-0.21908150613307953
10.76,0.06045197322964668,0.008655018173158169,0.02090519852936268,0.06627649813890457,-0.9616345167160034,-0.22078950703144073
10.78,0.05619104206562042,0.0011983871227130294,0.01983996480703354,0.06383650004863739,-0.9645625352859497,-0.21908150613307953
10.8,0.04340824484825134,0.0033288532868027687,0.01877473294734955,0.06139649823307991,-0.9555040001869202,-0.22176551818847656
10.82,0.0370168462395668,-0.004127778112888336,0.013448567129671574,0.059444501996040344,-0.9606585502624512,-0.22005750238895416
10.84,0.029560215771198273,-0.004127778112888336,0.007057168986648321,0.061884500086307526,-0.9574559926986694,-0.21420150995254517
10.86,0.019973119720816612,-0.007323476951569319,-0.00359516148455441,0.06212850287556648,-0.9581879377365112,-0.21273750066757202
10.88,0.014646953903138638,-0.007323476951569319,-0.005725627299398184,0.059688501060009,-0.9609025120735168,-0.21615348756313324
10.9,0.002929390873759985,-0.004127778112888336,-0.006790860556066036,0.05895650014281273,-0.9525759816169739,-0.21151749789714813
10.92,-0.0033288532868027687,-0.004127778112888336,-0.012117025442421436,0.05895650014281273,-0.9596824645996094,-0.2122495025396347
10.94,-0.0033288532868027687,-0.0030625448562204838,-0.013182258233428001,0.05920049920678139,-0.9547720551490784,-0.21298149228096008
10.96,-0.0033288532868027687,-0.0009320789249613881,-0.01637795753777027,0.060664497315883636,-0.9576999545097351,-0.21371349692344666
10.98,-0.0033288532868027687,-0.004127778112888336,-0.02063889056444168,0.060664497315883636,-0.9576999545097351,-0.20322149991989136
11,0.002929390873759985,-0.0030625448562204838,-0.01744319126009941,0.060664497315883636,-0.9576999545097351,-0.20322149991989136
11.02,0.00719032296910882,-0.006258244160562754,-0.015312724746763706,0.05773650482296944,-0.9567239880561829,-0.21005350351333618
11.04,0.0061250897124409676,0.0001331541279796511,-0.012117025442421436,0.059444501996040344,-0.9657825231552124,-0.20492950081825256
11.06,0.002929390873759985,0.0011983871227130294,-0.008921326138079166,0.059444501996040344,-0.9633424878120422,-0.2076134830713272
11.08,0.0061250897124409676,-0.005193010903894901,-0.008921326138079166,0.06115249916911125,-0.964318573474884,-0.211029514670372
11.1,0.009320789016783237,-0.004127778112888336,-0.007856093347072601,0.06359250098466873,-0.957211971282959,-0.20785750448703766
11.12,0.012516488321125507,-0.0030625448562204838,-0.008921326138079166,0.06920450180768967,-0.9525759816169739,-0.211029514670372
11.14,0.015712186694145203,-0.001997311832383275,-0.007856093347072601,0.06530049443244934,-0.9525759816169739,-0.2029774934053421
11.16,0.0061250897124409676,-0.0009320789249613881,-0.008921326138079166,0.06408049911260605,-0.9628545045852661,-0.2093214988708496
11.18,0.0018641578499227762,0.004394086077809334,-0.012117025442421436,0.06481250375509262,-0.965538501739502,-0.2117614895105362
11.2,-0.00226362026296556,0.007589785382151604,-0.01637795753777027,0.06920450180768967,-0.9706624746322632,-0.2059054970741272
11.22,-0.0033288532868027687,0.00226362026296556,-0.0185084231197834,0.06822849810123444,-0.960170567035675,-0.20810149610042572
11.24,-0.008655018173158169,-0.001997311832383275,-0.02063889056444168,0.0701805055141449,-0.9557480216026306,-0.20492950081825256
11.26,-0.004394086077809334,-0.0030625448562204838,-0.02276935614645481,0.06969249993562698,-0.96236652135849,-0.21078549325466156
11.28,-0.013981183059513569,-0.004127778112888336,-0.01957365684211254,0.07432850450277328,-0.9606585502624512,-0.20688150823116302
11.3,-0.018242115154862404,-0.009453942999243736,-0.02276935614645481,0.07725650072097778,-0.9552600383758545,-0.21200551092624664
11.32,-0.029959678649902344,-0.013714875094592571,-0.02703028731048107,0.08241099864244461,-0.9498920440673828,-0.21908150613307953
11.34,-0.03848154470324516,-0.011584409512579441,-0.03129122033715248,0.08241099864244461,-0.9486719965934753,-0.22371749579906464
11.36,-0.044872939586639404,-0.008388710208237171,-0.03022598661482334,0.08680299669504166,-0.9579439759254456,-0.22249749302864075
11.38,-0.047003407031297684,-0.0030625448562204838,-0.03342168778181076,0.0794524997472763,-0.9670025110244751,-0.22347350418567657
11.4,-0.054460037499666214,0.0011983871227130294,-0.02596505545079708,0.08338699489831924,-0.9660264849662781,-0.22643199563026428
11.42,-0.053394805639982224,0.00226362026296556,-0.02596505545079708,0.08216699957847595,-0.9609025120735168,-0.2298480123281479
11.44,-0.04274247586727142,0.0001331541279796511,-0.0238345880061388,0.07847649604082108,-0.9450119733810425,-0.22127750515937805
11.46,-0.040612008422613144,0.004394086077809334,-0.02489982172846794,0.08140449970960617,-0.9398880004882812,-0.2257000058889389
11.48,-0.04274247586727142,0.010785484686493874,-0.02916075475513935,0.08582700043916702,-0.9411080479621887,-0.22496800124645233
11.5,-0.054460037499666214,0.019307348877191544,-0.03235645219683647,0.08777900040149689,-0.94623202085495,-0.23253199458122253
11.52,-0.06830807030200958,0.026763979345560074,-0.03235645219683647,0.08777900040149689,-0.9564799666404724,-0.23838798701763153
11.54,-0.0778951644897461,0.027829213067889214,-0.03448691964149475,0.09021900594234467,-0.9559919834136963,-0.23863200843334198
11.56,-0.08002562820911407,0.031024912372231483,-0.03555215150117874,0.09436699748039246,-0.9503800272941589,-0.24644000828266144
11.58,-0.07469946891069412,0.022503048181533813,-0.04087831825017929,0.09778299927711487,-0.9472079873085022,-0.24985599517822266
11.6,-0.07043853402137756,0.020372580736875534,-0.04087831825017929,0.09827099740505219,-0.9428160190582275,-0.24595199525356293
11.62,-0.07043853402137756,0.012915950268507004,-0.03768261894583702,0.10144300013780594,-0.9467200040817261,-0.24522000551223755
11.64,-0.06830807030200958,0.012915950268507004,-0.039813082665205,0.09705100208520889,-0.9457440376281738,-0.2496120035648346
11.66,-0.06937330216169357,0.012915950268507004,-0.03555215150117874,0.1004670038819313,-0.9494039416313171,-0.2518385052680969
11.68,-0.061916667968034744,0.009720250964164734,-0.03555215150117874,0.10095499455928802,-0.9425719976425171,-0.24985599517822266
11.7,-0.06298190355300903,0.0011983871227130294,-0.03342168778181076,0.09949100017547607,-0.9437919855117798,-0.24863600730895996
11.72,-0.058720968663692474,0.0001331541279796511,-0.03555215150117874,0.10119900107383728,-0.9398880004882812,-0.2525705099105835
11.74,-0.057655736804008484,-0.0030625448562204838,-0.03022598661482334,0.09680700302124023,-0.9384239912033081,-0.2508319914340973
11.76,-0.051264338195323944,0.0011983871227130294,-0.03022598661482334,0.09778299927711487,-0.9394000172615051,-0.252082496881485
11.78,-0.048068638890981674,-0.0009320789249613881,-0.03448691964149475,0.10363900661468506,-0.9384239912033081,-0.252082496881485
11.8,-0.04274247586727142,-0.0009320789249613881,-0.02916075475513935,0.10022300481796265,-0.9425719976425171,-0.2542785108089447
11.82,-0.041677240282297134,0.0001331541279796511,-0.02916075475513935,0.1016869992017746,-0.9381800293922424,-0.252082496881485
11.84,-0.03848154470324516,-0.005193010903894901,-0.02596505545079708,0.09729500114917755,-0.937936007976532,-0.24887999892234802
11.86,-0.031024912372231483,-0.008388710208237171,-0.0238345880061388,0.09778299927711487,-0.9408639669418335,-0.252082496881485
11.88,-0.027829213067889214,-0.004127778112888336,-0.0238345880061388,0.10071099549531937,-0.9423280358314514,-0.2579385042190552
11.9,-0.024633513763546944,-0.006258244160562754,-0.02063889056444168,0.09656299650669098,-0.9398880004882812,-0.25696250796318054
11.92,-0.025698747485876083,-0.006258244160562754,-0.02276935614645481,0.10266300290822983,-0.9445239901542664,-0.2567185163497925
11.94,-0.022503048181533813,-0.006258244160562754,-0.01957365684211254,0.09924700111150742,-0.9384239912033081,-0.25647449493408203
11.96,-0.023568280041217804,-0.009453942999243736,-0.0185084231197834,0.10315100103616714,-0.9372040629386902,-0.2567185163497925
11.98,-0.015046416781842709,-0.009453942999243736,-0.02063889056444168,0.10412700474262238,-0.9367160201072693,-0.25452250242233276
12,-0.016111649572849274,-0.011584409512579441,-0.01637795753777027,0.10388299822807312,-0.9350079894065857,-0.2579385042190552
12.02,-0.021437814459204674,-0.008388710208237171,-0.01637795753777027,0.10119900107383728,-0.9415960311889648,-0.2623305022716522
12.04,-0.019307348877191544,-0.011584409512579441,-0.009986559860408306,0.10193099826574326,-0.9411080479621887,-0.25940248370170593
12.06,-0.008655018173158169,-0.009453942999243736,-0.008921326138079166,0.10095499455928802,-0.9415960311889648,-0.2550104856491089
12.08,-0.00226362026296556,-0.010519175790250301,-0.009986559860408306,0.10241899639368057,-0.9415960311889648,-0.25623050332069397
12.1,0.0007989247678779066,-0.012649642303586006,-0.007856093347072601,0.1033950001001358,-0.940619945526123,-0.25647449493408203
12.12,0.0018641578499227762,-0.011584409512579441,-0.007856093347072601,0.1033950001001358,-0.9413520693778992,-0.2567185163497925
12.14,0.002929390873759985,-0.009453942999243736,-0.005725627299398184,0.10363900661468506,-0.9398880004882812,-0.25647449493408203
12.16,0.002929390873759985,-0.0030625448562204838,-0.0003994623839389533,0.10095499455928802,-0.942084014415741,-0.2554984986782074
12.18,0.011451254598796368,-0.001997311832383275,0.0027962366584688425,0.10437100380659103,-0.9411080479621887,-0.2542785108089447
12.2,0.011451254598796368,-0.0030625448562204838,0.007057168986648321,0.10583500564098358,-0.9381800293922424,-0.2530584931373596
12.22,0.014646953903138638,-0.001997311832383275,0.008122402243316174,0.10388299822807312,-0.9450119733810425,-0.252082496881485
12.24,0.022103585302829742,0.00226362026296556,0.013448567129671574,0.09949100017547607,-0.9411080479621887,-0.2508319914340973
12.26,0.024234050884842873,0.005459319334477186,0.01983996480703354,0.09680700302124023,-0.9396439790725708,-0.2525705099105835
12.28,0.029560215771198273,0.008655018173158169,0.02303566411137581,0.09607499837875366,-0.9413520693778992,-0.2525705099105835
12.3,0.0370168462395668,0.015046416781842709,0.03049229457974434,0.09753900021314621,-0.9391559958457947,-0.2500999867916107
12.32,0.04234301298856735,0.015046416781842709,0.03688369318842888,0.09656299650669098,-0.9386680126190186,-0.2449759840965271
12.34,0.05086487531661987,0.019307348877191544,0.04114462435245514,0.09217099845409393,-0.9374480247497559,-0.2454639971256256
12.36,0.05512581020593643,0.022503048181533813,0.05073172226548195,0.09241500496864319,-0.9445239901542664,-0.24692799150943756
12.38,0.06364767253398895,0.028894444927573204,0.05286218971014023,0.08899899572134018,-0.9413520693778992,-0.24131599068641663
12.4,0.07216953486204147,0.027829213067889214,0.05818835273385048,0.09192699939012527,-0.9440360069274902,-0.24058398604393005
12.42,0.07323476672172546,0.034220609813928604,0.06244928762316704,0.09192699939012527,-0.9440360069274902,-0.24058398604393005
12.44,0.09347419440746307,0.029959678649902344,0.07097115367650986,0.09046300500631332,-0.9401319622993469,-0.23887600004673004
12.46,0.10625699162483215,0.036351077258586884,0.08162347972393036,0.08314299583435059,-0.9401319622993469,-0.2327760010957718
12.48,0.12756165862083435,0.034220609813928604,0.09121058136224747,0.08680299669504166,-0.940619945526123,-0.22838400304317474
12.5,0.14034445583820343,0.036351077258586884,0.10079767554998398,0.08680299669504166,-0.9411080479621887,-0.22005750238895416
12.52,0.16271434724330902,0.04274247586727142,0.12210233509540558,0.08091650158166885,-0.940619945526123,-0.21444550156593323
12.54,0.17975807189941406,0.043807707726955414,0.13275466859340668,0.07213249802589417,-0.9401319622993469,-0.21078549325466156
12.56,0.21491076052188873,0.03848154470324516,0.1519288569688797,0.07237650454044342,-0.9369600415229797,-0.204197496175766
12.58,0.24686774611473083,0.034220609813928604,0.16897258162498474,0.06993649899959564,-0.9364719390869141,-0.20273350179195404
12.6,0.2734985649585724,0.029959678649902344,0.1828206181526184,0.06627649813890457,-0.9398880004882812,-0.20151349902153015
12.62,0.3043903410434723,0.027829213067889214,0.20732097327709198,0.0626165047287941,-0.9425719976425171,-0.1912350058555603
12.64,0.3352820873260498,0.018242115154862404,0.22955772280693054,0.06139649823307991,-0.940619945526123,-0.18123099207878113
12.66,0.37469571828842163,0.015046416781842709,0.2668408751487732,0.04770199954509735,-0.9335440397262573,-0.16875649988651276
12.68,0.4194355010986328,0.010785484686493874,0.310515433549881,0.04013799875974655,-0.9367160201072693,-0.14606450498104095
12.7,0.464175283908844,0.010785484686493874,0.35738566517829895,0.029401998966932297,-0.937936007976532,-0.13017401099205017
12.72,0.5408720970153809,0.008655018173158169,0.43940863013267517,0.01033950038254261,-0.931835949420929,-0.10989149659872055
12.74,0.6069164872169495,0.010785484686493874,0.5065183043479919,-0.00506300013512373,-0.9308295249938965,-0.0915914997458458
12.76,0.7079805135726929,0.015046416781842709,0.6045197248458862,-0.020191000774502754,-0.9244855046272278,-0.06545300036668777
12.78,0.8027862310409546,0.026763979345560074,0.6854774355888367,-0.053405504673719406,-0.9157015085220337,-0.035654500126838684
12.8,0.9167661666870117,0.023568280041217804,0.8058487772941589,-0.08713849633932114,-0.9193615317344666,0.00979050062596798
12.82,0.990267276763916,0.03528584539890289,0.8813471794128418,-0.08713849633932114,-0.9193615317344666,0.00979050062596798
12.84,1.1500521898269653,0.018242115154862404,1.0123708248138428,-0.10373049974441528,-0.914481520652771,0.01857450045645237
12.86,1.2585728168487549,0.012915950268507004,1.0890675783157349,-0.1433195024728775,-0.8939549922943115,0.04937949776649475
12.88,1.3949226140975952,-0.012649642303586006,1.1987866163253784,-0.15600749850273132,-0.8783390522003174,0.08015399426221848
12.9,1.5163592100143433,-0.015845341607928276,1.3095707893371582,-0.1701900064945221,-0.8834630250930786,0.09601400047540665
12.92,1.655904769897461,-0.001997311832383275,1.408637523651123,-0.21292048692703247,-0.8871230483055115,0.12874050438404083
12.94,1.8283393383026123,-0.0723026916384697,1.5203537940979004,-0.22978699207305908,-0.8658644556999207,0.16442550718784332
12.96,1.9572324752807617,-0.14899946749210358,1.5821373462677002,-0.24027900397777557,-0.8824869990348816,0.21523848176002502
12.98,1.930601716041565,-0.20865251123905182,1.6172900199890137,-0.22929899394512177,-0.9342759847640991,0.2088640034198761
13,1.9178189039230347,-0.2203700840473175,1.7057043313980103,-0.23125100135803223,-1.062741994857788,0.1920280009508133
13.02,1.9859938621520996,-0.17136935889720917,1.7387266159057617,-0.2500694990158081,-1.1372535228729248,0.23695451021194458
13.04,2.1553659439086914,-0.025432437658309937,1.7525746822357178,-0.2735240161418915,-0.9518439769744873,0.22036249935626984
13.06,2.5483036041259766,0.13421936333179474,1.8569674491882324,-0.33043697476387024,-1.0803405046463013,0.3693549931049347
13.08,2.7549588680267334,0.060851436108350754,1.9624255895614624,-0.3697514832019806,-0.9310735464096069,0.3644750118255615
13.1,2.573869228363037,0.025698747485876083,1.7930535078048706,-0.40198999643325806,-0.7764689922332764,0.3622789978981018
13.12,2.423804521560669,-0.16391272842884064,1.597050666809082,-0.4471909999847412,-0.6736230254173279,0.4497224986553192
13.14,2.3332598209381104,-0.09999874979257584,1.3202232122421265,-0.4610990285873413,-0.6821630001068115,0.5699229836463928
13.16,2.212888479232788,-0.1138467788696289,1.20091712474823,-0.5448824763298035,-0.6885374784469604,0.6050894856452942
13.18,1.9551020860671997,-0.044606633484363556,1.287200927734375,-0.6157340407371521,-0.697565495967865,0.587490975856781
13.2,1.6931878328323364,0.026763979345560074,1.3681586980819702,-0.6330885291099548,-0.5915474891662598,0.5931029915809631
13.22,1.4460538625717163,-0.04673709720373154,1.287200927734375,-0.6318684816360474,-0.5119120478630066,0.688385009765625
13.24,1.2905298471450806,-0.04993279650807381,1.1380683183670044,-0.6653270125389099,-0.4630510210990906,0.7636284828186035
13.26,1.1852048635482788,0.004394086077809334,1.0304797887802124,-0.6789909601211548,-0.45329099893569946,0.7262354493141174
13.28,0.9359403848648071,0.0874822586774826,0.8749557733535767,-0.7149199843406677,-0.47088947892189026,0.7115955352783203
13.3,0.8358084559440613,0.1374150663614273,0.7057169079780579,-0.7115039825439453,-0.38856998085975647,0.7631404995918274
13.32,0.8166342377662659,-0.050998032093048096,0.5246272683143616,-0.6477285027503967,-0.38978999853134155,0.7389540076255798
13.34,0.7931991219520569,-0.09680305421352386,0.44153907895088196,-0.6181740164756775,-0.3563009798526764,0.7633845210075378
13.36,0.7015891075134277,-0.023301972076296806,0.4489957094192505,-0.6181740164756775,-0.3050305247306824,0.8107509613037109
13.38,0.5600462555885315,-0.019041040912270546,0.45006096363067627,-0.6074380278587341,-0.2715415060520172,0.7855885028839111
13.4,0.4758928418159485,-0.06378082931041718,0.4596480429172516,-0.6089019775390625,-0.27422550320625305,0.7785124778747559
13.42,0.4290226101875305,-0.09999874979257584,0.48627886176109314,-0.6462644934654236,-0.21072448790073395,0.7677764892578125
13.44,0.43860968947410583,-0.048867564648389816,0.5203663110733032,-0.6462644934654236,-0.21072448790073395,0.7677764892578125
13.46,0.45778387784957886,-0.028628136962652206,0.4894745647907257,-0.6599590182304382,-0.1789740025997162,0.7682644724845886
13.48,0.4620448350906372,-0.038215234875679016,0.44366955757141113,-0.6780149936676025,-0.18507400155067444,0.7833924889564514
13.5,0.4545882046222687,-0.021171506494283676,0.4021254777908325,-0.6912214756011963,-0.17921799421310425,0.8105069994926453
13.52,0.4236964285373688,0.0033288532868027687,0.3595161437988281,-0.6907334923744202,-0.167262002825737,0.8046509623527527
13.54,0.38428282737731934,0.011850717477500439,0.310515433549881,-0.6907334923744202,-0.167262002825737,0.8046509623527527
13.56,0.3267602324485779,0.019307348877191544,0.2668408751487732,-0.6961015462875366,-0.15649549663066864,0.7912309765815735
13.58,0.272433340549469,0.033155377954244614,0.24127528071403503,-0.6772830486297607,-0.13182100653648376,0.7887910008430481
13.6,0.21597599983215332,0.04913387447595596,0.2147776037454605,-0.6772830486297607,-0.13182100653648376,0.7887910008430481
13.62,0.1744319051504135,0.053394805639982224,0.18814678490161896,-0.6743549704551697,-0.12889300286769867,0.805383026599884
13.64,0.11797455698251724,0.04274247586727142,0.15405932068824768,-0.6623989939689636,-0.1281609982252121,0.7973309755325317
13.66,0.07110430300235748,0.026763979345560074,0.13808083534240723,-0.6623989939689636,-0.1281609982252121,0.7973309755325317
13.68,0.04660394415259361,0.011850717477500439,0.12636326253414154,-0.6614229679107666,-0.11153849959373474,0.804407000541687
13.7,0.023168819025158882,0.007589785382151604,0.11145000159740448,-0.6665470004081726,-0.09592249989509583,0.7902550101280212
13.72,0.00719032296910882,0.008655018173158169,0.1093195378780365,-0.6665470004081726,-0.09592249989509583,0.7902550101280212
13.74,-0.006524552125483751,0.008655018173158169,0.11251524090766907,-0.6636189818382263,-0.07954400032758713,0.7807084918022156
13.76,-0.015046416781842709,0.00226362026296556,0.10718907415866852,-0.6636189818382263,-0.07954400032758713,0.7807084918022156
13.78,-0.015046416781842709,0.009720250964164734,0.10186290740966797,-0.669963002204895,-0.07978799939155579,0.7811964750289917
13.8,-0.008655018173158169,0.008655018173158169,0.08588441461324692,-0.6663030385971069,-0.0802759975194931,0.7753404974937439
13.82,0.002929390873759985,0.0033288532868027687,0.08055824786424637,-0.6650829911231995,-0.06270799785852432,0.7770484685897827
13.84,0.008255556225776672,0.007589785382151604,0.07523208111524582,-0.6704509854316711,-0.05953599885106087,0.7826604843139648
13.86,0.024234050884842873,0.0033288532868027687,0.0667102187871933,-0.6704509854316711,-0.05953599885106087,0.7826604843139648
13.88,0.029560215771198273,-0.005193010903894901,0.0667102187871933,-0.6689870357513428,-0.05904799699783325,0.7807084918022156
13.9,0.029560215771198273,-0.014780107885599136,0.06138405203819275,-0.665814995765686,-0.061243996024131775,0.7733885049819946
13.92,0.029560215771198273,-0.012649642303586006,0.05499265342950821,-0.6648390293121338,-0.062463998794555664,0.7760725021362305
13.94,0.03275591507554054,0.0033288532868027687,0.04966649040579796,-0.6589829921722412,-0.06319600343704224,0.7785124778747559
13.96,0.04234301298856735,0.011850717477500439,0.04860125854611397,-0.6672790050506592,-0.06270799785852432,0.783148467540741
13.98,0.03914731368422508,0.013981183059513569,0.03581846132874489,-0.6719149947166443,-0.0605120025575161,0.7782685160636902
14,0.03169068321585655,0.015046416781842709,0.02410089783370495,-0.6716709733009338,-0.06685599684715271,0.7885469794273376
14.02,0.016777420416474342,0.009720250964164734,0.013448567129671574,-0.6716709733009338,-0.06685599684715271,0.7885469794273376
14.04,0.012516488321125507,0.012915950268507004,0.005991935729980469,-0.6719149947166443,-0.06831999868154526,0.7829045057296753
14.06,0.008255556225776672,0.009720250964164734,0.000665770610794425,-0.674111008644104,-0.062219999730587006,0.7853444814682007
14.08,-0.17802706360816956,0.10758853703737259,-0.007856093347072601,0.24067549407482147,-0.14844349026679993,0.9829844832420349
14.1,-0.33781203627586365,0.38348388671875,0.05179695412516594,0.24067549407482147,-0.14844349026679993,0.9829844832420349
14.12,-0.31544211506843567,0.43141937255859375,0.08162347972393036,0.22627951204776764,-0.10690250247716904,1.006438970565796
14.14,-0.18867939710617065,0.38881006836891174,0.0773625448346138,0.18766650557518005,-0.1235249936580658,1.0218110084533691
14.16,0.008255556225776672,0.2982652485370636,0.04647079110145569,0.16839049756526947,-0.13060098886489868,1.0249830484390259
14.18,0.16271434724330902,0.16511112451553345,-0.02489982172846794,0.1214815080165863,-0.111782506108284,0.9988445043563843
14.2,0.2820204496383667,0.20558997988700867,-0.014247491955757141,0.17473450303077698,-0.10909850150346756,0.9758780002593994
14.22,0.5451329946517944,0.16298064589500427,-0.10266183316707611,0.1285575032234192,-0.15137150883674622,0.9910364747047424
14.24,0.7324808835983276,-0.061650361865758896,-0.1250317245721817,0.18986250460147858,-0.15917949378490448,1.0179070234298706
14.26,0.7335460782051086,-0.06271559745073318,-0.19746756553649902,0.12880149483680725,-0.16503550112247467,1.0113189220428467
14.28,0.5802856683731079,0.08854749798774719,-0.1793586164712906,0.18498249351978302,-0.11376499384641647,0.979324460029602
14.3,0.421565979719162,0.32596129179000854,-0.17083674669265747,0.18181049823760986,-0.06905199587345123,0.9670940041542053
14.32,0.30971649289131165,0.5848129391670227,-0.05366111174225807,0.12880149483680725,-0.0394974984228611,0.9712420105934143
14.34,0.2596505582332611,0.8935973644256592,-0.01957365684211254,0.11708950251340866,-0.04218149930238724,0.9761219620704651
14.36,0.3224993050098419,0.2460688352584839,0.15832026302814484,0.11708950251340866,-0.04218149930238724,0.9761219620704651
14.38,0.32889068126678467,0.10026505589485168,0.15832026302814484,0.15079200267791748,-0.08515600115060806,1.041117548942566
14.4,0.14140968024730682,0.1821548491716385,0.1625811904668808,0.15079200267791748,-0.08515600115060806,1.041117548942566
14.42,-0.005459319334477186,0.45378926396369934,0.12742850184440613,0.13246150314807892,-0.06831999868154526,1.0096110105514526
14.44,0.09773512929677963,0.27056917548179626,0.13808083534240723,0.0748165026307106,-0.010919000022113323,0.9915244579315186
14.46,0.28734660148620605,-0.055258963257074356,0.0560578890144825,0.0718884989619255,-0.0035989999305456877,1.0391654968261719
14.48,0.31823837757110596,-0.1042596846818924,0.014513799920678139,0.0911950021982193,-0.009943000040948391,1.0310829877853394
14.5,0.291607528924942,-0.043541401624679565,0.0454055592417717,0.10510299354791641,-0.01823900081217289,0.9932325482368469
14.52,0.2394111156463623,0.004394086077809334,0.06244928762316704,0.09753900021314621,-0.007747000083327293,0.98762047290802
14.54,0.22236739099025726,0.022503048181533813,0.07203638553619385,0.10559099912643433,-0.008723000064492226,1.0076590776443481
14.56,0.2383458912372589,-0.008388710208237171,0.05499265342950821,0.10559099912643433,-0.008723000064492226,1.0076590776443481
14.58,0.27456381916999817,-0.08828118443489075,0.04327509179711342,0.11123350262641907,-0.0030805000569671392,1.02229905128479
14.6,0.2404763549566269,-0.10532491654157639,0.04860125854611397,0.10778699815273285,0.011559500358998775,0.9961604475975037
14.62,0.16164910793304443,0.048068638890981674,0.000665770610794425,0.10315100103616714,0.018635500222444534,0.9773725271224976
14.64,0.10625699162483215,-0.04673709720373154,0.06244928762316704,0.095830999314785,-0.0038429999258369207,0.9771285057067871
14.66,0.13927921652793884,0.033155377954244614,0.04434032365679741,0.11342950165271759,0.010827499441802502,1.0071710348129272
14.68,0.12969212234020233,-0.12769481539726257,-0.006790860556066036,0.09046300500631332,0.03647800162434578,1.0213229656219482
14.7,0.019973119720816612,0.028894444927573204,-0.01744319126009941,0.11001349240541458,0.04574999958276749,1.0257149934768677
14.72,-0.027829213067889214,0.03209014609456062,-0.0014646954368799925,0.09241500496864319,0.0386740006506443,1.020835041999817
14.74,-0.029959678649902344,-0.0030625448562204838,0.000665770610794425,0.095830999314785,0.03184200078248978,1.0186389684677124
14.76,-0.011850717477500439,-0.001997311832383275,-0.007856093347072601,0.10510299354791641,0.024277999997138977,1.0093669891357422
14.78,0.04553871229290962,-0.040345702320337296,0.000665770610794425,0.10851900279521942,0.02302750013768673,1.0052189826965332
