timestamp,gyro_x,gyro_y,gyro_z,acc_x,acc_y,acc_z
0,0.3555215299129486,-0.3577851355075836,0.05179695412516594,-0.3480049967765808,0.24363400042057037,0.9795685410499573
0.02,0.5131760239601135,0.5496602654457092,0.012383334338665009,-0.3260144889354706,0.2677900195121765,1.1168489456176758
0.04,0.5696333646774292,0.23222079873085022,0.07842778414487839,-0.24271899461746216,0.2870965003967285,0.9709979891777039
0.06,0.7133066654205322,-0.33435001969337463,-0.1250317245721817,-0.2874320149421692,0.2953925132751465,1.0088790655136108
0.08,0.9966586232185364,-0.8338111639022827,-0.19107617437839508,-0.3230865001678467,0.3046950101852417,1.046973466873169
0.1,0.8198299407958984,-0.46217799186706543,-0.13035789132118225,-0.34068500995635986,0.23311150074005127,0.9678260087966919
0.12,-0.17057043313980103,-0.26937079429626465,0.5043878555297852,-0.41373252868652344,0.18522650003433228,0.6312280297279358
0.14,-1.3228862285614014,-0.8125064969062805,1.0059794187545776,-0.38466599583625793,0.3945784866809845,0.5596445202827454
0.16,-1.7170225381851196,-1.6602988243103027,1.1625686883926392,-0.12864899635314941,0.4214489758014679,0.7125715017318726
0.18,-1.0535154342651367,-0.9733566641807556,1.2957228422164917,-0.10787849128246307,0.32497748732566833,1.1392970085144043
0.2,0.4940018057823181,-0.292805939912796,0.9697614908218384,-0.06148799881339073,0.2621780037879944,1.171321988105774
0.22,1.8507091999053955,-1.0298140048980713,1.0709586143493652,-0.10470650345087051,0.17839449644088745,1.0538054704666138
0.24,2.737915277481079,-1.8721470832824707,1.4043766260147095,-0.08125199377536774,0.16741450130939484,1.000064492225647
0.26,2.3875865936279297,-2.4621529579162598,1.4969186782836914,-0.1310890018939972,0.2924644947052002,0.751397967338562
0.28,0.7814815640449524,-3.2417705059051514,0.879216730594635,0.25705400109291077,0.39823850989341736,0.40159350633621216
0.3,0.3150426745414734,-3.4228599071502686,1.0272841453552246,0.21087700128555298,0.37844401597976685,0.53643399477005
0.32,0.03914731368422508,-4.167191505432129,2.079468011856079,-0.019214998930692673,0.23311150074005127,0.6021614670753479
0.34,-0.06937330216169357,-5.1108551025390625,2.462951898574829,0.08265500515699387,0.21331699192523956,0.5088315010070801
0.36,0.28947708010673523,-5.944799423217773,3.812335729598999,-0.07344400137662888,-0.2781600058078766,0.7533499598503113
0.38,1.1383346319198608,-6.436803817749023,5.351198196411133,-0.07344400137662888,-0.2781600058078766,0.7533499598503113
0.4,2.0051679611206055,-6.620955944061279,5.622832298278809,0.2861205041408539,-0.3353169858455658,0.8024550080299377
0.42,2.034994602203369,-4.9745049476623535,5.925225734710693,0.6454409956932068,-0.3047865033149719,0.5442724823951721
0.44,0.5877423286437988,-2.386521339416504,5.598331928253174,0.9356484413146973,-0.12474500387907028,0.1504869908094406
0.46,-1.7734798192977905,1.1876016855239868,3.7825093269348145,1.4828184843063354,0.15982000529766083,-0.14216050505638123
0.48,-2.8256638050079346,3.2024898529052734,1.3702890872955322,1.983323574066162,0.6153985261917114,0.1819934993982315
0.5,-3.6138031482696533,5.625362396240234,-0.8215609788894653,2.019984483718872,0.6806380152702332,0.5950855016708374
0.52,-3.6924970149993896,5.502993583679199,-1.2496514320373535,1.0741490125656128,0.2651059925556183,0.7450540065765381
0.54,-2.6424436569213867,2.3537654876708984,-2.193314790725708,0.8723610043525696,0.14786399900913239,0.8872145414352417
0.56,-1.6978483200073242,1.8234126567840576,-3.211411237716675,1.022603988647461,0.03794199973344803,1.2912479639053345
0.58,-0.041677240282297134,3.0609471797943115,-4.520316123962402,1.022603988647461,0.03794199973344803,1.2912479639053345
0.6,1.0754859447479248,2.970402240753174,-4.783295631408691,0.8953275084495544,-0.21780049800872803,1.2594974040985107
0.62,2.3375205993652344,3.508211851119995,-4.201811790466309,0.45490750670433044,-0.4181245267391205,1.081164002418518
0.64,1.2308768033981323,0.9937292337417603,-2.1432487964630127,0.45490750670433044,-0.4181245267391205,1.081164002418518
0.66,0.017842652276158333,1.7989122867584229,-1.2656300067901611,-0.011163000017404556,-0.14356349408626556,0.3441925048828125
0.68,-0.8905348181724548,2.5986359119415283,-0.6947982311248779,0.2980765104293823,-0.0785680040717125,0.5159380435943604
0.7,-0.7488588094711304,2.0256738662719727,-0.34340450167655945,0.24238350987434387,0.008875500410795212,0.7861070036888123
0.72,-0.12263495475053787,0.9489894509315491,-0.370035320520401,0.33254149556159973,0.005703500006347895,0.9929885268211365
0.74,0.6834801435470581,-0.2715012729167938,-0.43594661355018616,0.3535254895687103,0.045993998646736145,1.0523415803909302
0.76,0.9167661666870117,-0.7901365756988525,-0.24646829068660736,0.29441651701927185,0.03672200068831444,0.948031485080719
0.78,0.7186328172683716,-0.6420692205429077,0.14553746581077576,0.23847949504852295,0.03306199982762337,0.8557080030441284
0.8,0.2703028917312622,-0.381220281124115,0.5161054134368896,0.24949000775814056,0.10903750360012054,0.7233074903488159
0.82,0.04021254554390907,-0.34287187457084656,0.7280867695808411,0.347181499004364,0.19818899035453796,0.7987949848175049
0.84,-0.054460037499666214,-0.09573781490325928,1.0176969766616821,0.33888551592826843,0.21627548336982727,0.8105069994926453
0.86,-0.22809302806854248,-0.5611115097999573,1.0400668382644653,0.47763001918792725,0.0894870012998581,0.7340739965438843
0.88,-0.17909230291843414,-0.8274197578430176,1.3117012977600098,0.42632901668548584,0.1546960026025772,0.8005030155181885
0.9,-0.3303554058074951,-0.7581796050071716,1.5331366062164307,0.43733951449394226,0.07997100055217743,0.7137914896011353
0.92,-0.5945332050323486,-0.10745538026094437,1.3521801233291626,0.4664060175418854,0.043554000556468964,0.6796010136604309
0.94,-0.41131308674812317,0.35578784346580505,0.6449986100196838,0.5088924765586853,0.1786385029554367,0.8022109866142273
0.96,-0.23448441922664642,-0.5195674300193787,0.437278151512146,0.5071845054626465,0.06212850287556648,0.835181474685669
0.98,-0.044872939586639404,-0.2874797582626343,0.7728265523910522,0.49620452523231506,-0.01579900085926056,0.9666060209274292
1,0.1126483902335167,-0.2757622003555298,0.986805260181427,0.49620452523231506,-0.01579900085926056,0.9666060209274292
1.02,0.2937380075454712,-0.5781552195549011,1.1732209920883179,0.40653449296951294,-0.04779350012540817,0.991768479347229
1.04,0.7740249633789062,-1.5878629684448242,1.788792610168457,0.21819700300693512,-0.161375492811203,0.9409554600715637
1.06,1.7592322826385498,-2.924464225769043,3.16054630279541,0.00789950042963028,-0.3328770101070404,0.8945344686508179
1.08,2.8060901165008545,-4.279041290283203,4.51512336730957,-0.12864899635314941,-0.617929995059967,0.6749345064163208
1.1,3.1809189319610596,-5.489944934844971,5.552526950836182,-0.0014029999729245901,-0.725167989730835,0.27873948216438293
1.12,2.1372568607330322,-6.101255416870117,6.188338279724121,0.12221349775791168,-0.8651325106620789,-0.21590949594974518
1.14,1.440727710723877,-4.828567981719971,6.843323230743408,0.6053944826126099,-1.056886076927185,0.11312449723482132
1.16,1.511033058166504,-3.9904961585998535,7.380067348480225,0.6053944826126099,-1.056886076927185,0.11312449723482132
1.18,2.0839953422546387,-4.030974864959717,6.945452690124512,0.8161800503730774,-1.1372535228729248,0.35447099804878235
1.2,3.024462938308716,-3.5208613872528076,6.4683613777160645,1.244156002998352,-1.1213630437850952,0.6622464656829834
1.22,3.604881763458252,-1.7453843355178833,5.449199676513672,1.5917644500732422,-1.1450614929199219,0.9201850295066833
1.24,3.6496214866638184,-0.5749595165252686,3.898486614227295,2.0253524780273438,-0.8829750418663025,0.8842865228652954
1.26,3.6739885807037354,-0.15326039493083954,2.0156872272491455,2.455738067626953,-0.49406948685646057,0.6634665131568909
1.28,2.9754621982574463,0.529420793056488,-0.13035789132118225,2.676100492477417,-0.19828049838542938,0.4184599816799164
1.3,1.8773400783538818,1.2589722871780396,-1.9717463254928589,2.5468719005584717,-0.07441999763250351,0.0017385000828653574
1.32,1.1564435958862305,1.233406662940979,-3.40315318107605,2.1973116397857666,-0.08222799748182297,-0.13163799047470093
1.34,0.3118469715118408,1.034208059310913,-4.577838897705078,1.9342185258865356,-0.15991149842739105,-0.20956549048423767
1.36,-0.7967942953109741,1.814890742301941,-4.679968357086182,1.2199695110321045,-0.4850414991378784,-0.4479840099811554
1.38,-1.4911930561065674,1.8841309547424316,-4.162397861480713,0.5452790260314941,-0.5763890147209167,-0.36002200841903687
1.4,-0.9608401656150818,-0.5781552195549011,-3.2976951599121094,-0.1765339970588684,-0.6123179793357849,0.14926700294017792
1.42,-0.26111525297164917,-4.2747802734375,-1.3380658626556396,-0.8700124621391296,-0.6513884663581848,0.5186220407485962
1.44,0.04447348043322563,-5.941603660583496,0.6865426898002625,-0.9249734878540039,-0.8245980143547058,0.6353760361671448
1.46,-0.5071840882301331,-4.655068397521973,1.4097027778625488,0.26193398237228394,-0.5053240060806274,0.19300399720668793
1.48,-2.478397846221924,-0.7730928659439087,1.0762847661972046,1.1327699422836304,-0.13840900361537933,-0.19736550748348236
1.5,-2.861881732940674,-0.5600462555885315,0.03581846132874489,1.4881865978240967,-0.40540599822998047,0.09674600511789322
1.52,-1.6605651378631592,-1.740058183670044,-0.3274259865283966,0.878979504108429,-0.8072435259819031,0.7211114764213562
1.54,-0.9736229777336121,-1.411034345626831,0.24127528071403503,0.6747515201568604,-0.7515504956245422,0.5547645092010498
1.56,-0.9693620800971985,-2.1480424404144287,0.2657756507396698,0.9351604580879211,-0.3878380060195923,0.18516549468040466
1.58,-1.5657594203948975,-1.6624293327331543,0.35845091938972473,0.9661790132522583,-0.21804450452327728,-0.16070449352264404
1.6,-1.7724145650863647,-0.7592448592185974,0.37869033217430115,1.0633825063705444,-0.5004439949989319,0.23695451021194458
1.62,-1.5487157106399536,-0.503722071647644,0.08481918275356293,1.1127314567565918,-0.6978094577789307,0.4187040328979492
1.64,-1.499714970588684,1.0523170232772827,0.12529803812503815,0.9906094670295715,-0.9430599808692932,0.43090400099754333
1.66,-3.123795747756958,2.2408509254455566,0.29240646958351135,0.8545490503311157,-0.3702394962310791,-0.3197315037250519
1.68,-4.434831619262695,2.4794631004333496,1.5278104543685913,0.7658855319023132,-0.1928820013999939,-0.1113554984331131
1.7,-4.548811435699463,1.139666199684143,3.183981418609619,0.8264585137367249,-0.16698750853538513,0.19471199810504913
1.72,-3.7734549045562744,-1.6975820064544678,5.468373775482178,0.7644215226173401,-0.49358150362968445,0.1272764950990677
1.74,-1.6903916597366333,-1.9264739751815796,3.303154468536377,1.5099329948425293,-0.7681730389595032,0.023729000240564346
1.76,1.248985767364502,-0.040345702320337296,-1.7310036420822144,0.7201964855194092,-1.1917264461517334,-0.4916905164718628
1.78,-0.07256899774074554,-0.2832188308238983,-0.44872942566871643,0.11855349689722061,-0.5443944931030273,-0.5603460073471069
1.8,-0.09706936031579971,0.19919857382774353,-0.2422073632478714,0.5799880027770996,-0.6895135045051575,0.09113399684429169
1.82,-0.2142449915409088,0.6561835408210754,-0.09946613013744354,0.6894220113754272,-0.6408964991569519,0.01174249965697527
1.84,-0.48587942123413086,1.5326039791107178,-0.11118369549512863,0.7136085033416748,-0.6296420097351074,-0.050538498908281326
1.86,-0.6806839108467102,2.2046329975128174,-0.09413997083902359,0.6510529518127441,-0.6604470014572144,-0.09866750240325928
1.88,-0.7563154697418213,2.3622872829437256,-0.11331415921449661,0.703574001789093,-0.5861794948577881,-0.12675799429416656
1.9,-0.6051855087280273,1.9256750345230103,-0.17509767413139343,0.8582090139389038,-0.5595529675483704,-0.006831999868154526
1.92,-0.3090507388114929,1.0757522583007812,-0.18042384088039398,0.8354865312576294,-0.6367484927177429,0.04837300255894661
1.94,-0.7786853313446045,0.5805519819259644,-0.1985328048467636,0.7905294895172119,-0.45621898770332336,-0.2000495046377182
1.96,-0.9395354986190796,0.5017247796058655,-0.262446790933609,0.8423184752464294,-0.5072759985923767,-0.02366800047457218
1.98,-0.9342093467712402,-0.19693495333194733,-0.3359478712081909,0.8330464959144592,-0.29401999711990356,-0.13456600904464722
2,-0.5082492828369141,-1.252314567565918,0.06457975506782532,0.6217425465583801,-0.20291650295257568,0.14682699739933014
2.02,-0.043807707726955414,-2.1352596282958984,0.9910661578178406,0.5098685026168823,-0.30109599232673645,0.009546499699354172
2.04,0.46950146555900574,-2.736983060836792,2.061359167098999,0.32372698187828064,-0.1765339970588684,0.022753000259399414
2.06,1.6377958059310913,-2.72206974029541,3.2425692081451416,0.1634799987077713,-0.22515100240707397,0.236222505569458
2.08,2.7123496532440186,-3.378120183944702,3.439504384994507,0.6986939907073975,-1.0615220069885254,-0.09281149506568909
2.1,0.47908854484558105,-1.8913211822509766,1.5874634981155396,1.044838547706604,-1.7814135551452637,-0.6636800169944763
2.12,-1.3346037864685059,-0.678287148475647,1.1071765422821045,0.672311544418335,-1.2515674829483032,-0.27501851320266724
2.14,-0.8852086663246155,0.14380645751953125,1.7131609916687012,0.5579975247383118,-0.880778968334198,0.3302845060825348
2.16,-0.6295527219772339,0.7668346166610718,2.1156859397888184,0.5699535012245178,-1.0002169609069824,-0.0332145020365715
2.18,-0.28241991996765137,1.08640456199646,1.9208815097808838,0.46469801664352417,-0.9591944813728333,-0.16656050086021423
2.2,-0.26324570178985596,1.139666199684143,1.1508511304855347,0.45954349637031555,-0.957211971282959,-0.23936399817466736
2.22,-0.23981058597564697,0.8126396536827087,0.49480074644088745,0.5108444690704346,-1.0031449794769287,-0.2611105144023895
2.24,-0.366573303937912,-0.7347444891929626,0.6790860295295715,0.21453699469566345,-0.869768500328064,-0.6668519973754883
2.26,0.05619104206562042,-1.1393998861312866,0.5565842390060425,0.29270848631858826,-0.7544785141944885,-0.21615348756313324
2.28,0.1531272530555725,-0.4983958899974823,0.1849510818719864,0.31787100434303284,-0.8648884892463684,-0.09256749600172043
2.3,0.03914731368422508,-0.32050198316574097,0.11464570462703705,0.3193349838256836,-0.9552600383758545,-0.14948049187660217
2.32,-0.07363422960042953,-0.055258963257074356,0.1732335239648819,0.3173829913139343,-0.899323046207428,-0.06106100231409073
2.34,-0.009720250964164734,-0.13302096724510193,-0.0611177459359169,0.303475022315979,-0.9232655167579651,-0.19489499926567078
2.36,0.029560215771198273,-0.11917294561862946,-0.011051792651414871,0.294904500246048,-0.8626925349235535,-0.24644000828266144
2.38,0.03488638252019882,-0.15326039493083954,-0.00359516148455441,0.30567100644111633,-0.8536644577980042,-0.20517349243164062
2.4,-0.028894444927573204,0.061916667968034744,0.15512455999851227,0.37551599740982056,-0.7965074777603149,-0.2181054949760437
2.42,-0.1205044835805893,0.299330472946167,0.5267577171325684,0.31079497933387756,-0.8165155649185181,-0.09573949873447418
2.44,-0.15459194779396057,0.24180789291858673,0.8291507363319397,0.2953925132751465,-0.8961510062217712,-0.1672924906015396
2.46,0.1744319051504135,-0.41743817925453186,1.3564411401748657,0.3139669895172119,-0.8575684428215027,-0.2623305022716522
2.48,0.4077179431915283,-1.4408608675003052,1.9336642026901245,0.32592299580574036,-0.9096015095710754,-0.24229200184345245
2.5,0.05512581020593643,-1.121290922164917,1.9240771532058716,0.22798749804496765,-0.9247294664382935,-0.22789600491523743
2.52,-0.08961272984743118,-1.299184799194336,2.1210122108459473,0.19257700443267822,-0.9914329648017883,-0.19147899746894836
2.54,0.13714875280857086,-2.2055649757385254,2.6779959201812744,0.1483519971370697,-0.9130174517631531,-0.21883749961853027
2.56,0.32995593547821045,-2.5889158248901367,3.0380446910858154,0.11196549981832504,-0.9174094796180725,-0.21420150995254517
2.58,0.6280879974365234,-2.637916326522827,3.336176633834839,-0.07515200227499008,-1.162660002708435,-0.198341503739357
2.6,0.5206326246261597,-2.1970431804656982,3.2617435455322266,-0.0021349999587982893,-1.2259169816970825,-0.28261297941207886
2.62,-0.037416309118270874,-0.8732247948646545,2.0444483757019043,-0.18336600065231323,-0.968222439289093,-0.16338850557804108
2.64,-0.04274247586727142,0.5869433879852295,1.2350045442581177,-0.22807900607585907,-0.884926974773407,0.003202499821782112
2.66,-0.11517832428216934,0.005459319334477186,0.5746932029724121,-0.2647095024585724,-0.7725650072097778,-0.22472400963306427
2.68,-0.1822880059480667,-0.20865251123905182,0.0667102187871933,-0.46552151441574097,-0.8299659490585327,-0.19465100765228271
2.7,-0.30692026019096375,-0.4643084406852722,-0.3785571753978729,-0.46503350138664246,-0.8719645142555237,-0.28212499618530273
2.72,-0.2579195499420166,-0.7677667140960693,-0.7768211960792542,-0.3484930098056793,-0.8304539322853088,-0.20614950358867645
2.74,-0.2568543255329132,-0.43874284625053406,-1.0376701354980469,-0.25787749886512756,-0.9029829502105713,-0.18855100870132446
2.76,-0.2163754552602768,-0.28108835220336914,-1.1399325132369995,-0.16088749468326569,-0.8788270354270935,-0.25696250796318054
2.78,-0.25152814388275146,-0.39506828784942627,-1.1921288967132568,-0.16088749468326569,-0.8788270354270935,-0.25696250796318054
2.8,-0.17802706360816956,-0.3066539466381073,-1.161237120628357,-0.15332350134849548,-0.9750545024871826,-0.2857849895954132
2.82,-0.023568280041217804,-0.13728190958499908,-1.013169765472412,-0.2104804962873459,-0.9953369498252869,-0.21273750066757202
2.84,0.04234301298856735,-0.09999874979257584,-0.8141043186187744,-0.2104804962873459,-0.9953369498252869,-0.21273750066757202
2.86,-0.07576470077037811,-0.2736317217350006,-0.5424699187278748,-0.1357250064611435,-1.0212315320968628,-0.21420150995254517
2.88,-0.09600412845611572,-0.17669552564620972,-0.44553372263908386,-0.1357250064611435,-1.0212315320968628,-0.21420150995254517
2.9,-0.06404713541269302,-0.047802332788705826,-0.27096864581108093,-0.16088749468326569,-0.9516000151634216,-0.2349720001220703
2.92,-0.03528584539890289,-0.08508548885583878,-0.08561810106039047,-0.09153049439191818,-0.9029829502105713,-0.15582449734210968
2.94,0.04234301298856735,-0.008388710208237171,-0.14314068853855133,-0.11059299111366272,-0.9630984663963318,-0.2728224992752075
2.96,0.06684337556362152,-0.019041040912270546,0.205190509557724,-0.11059299111366272,-0.9630984663963318,-0.2728224992752075
2.98,0.08708280324935913,0.17469821870326996,0.22423155605793,-0.14771150052547455,-0.9139935374259949,-0.2818810045719147
3,0.009320789016783237,0.10545806586742401,0.1316894292831421,-0.1474675089120865,-0.9139935374259949,-0.2181054949760437
3.02,-0.06830807030200958,0.08002562820911407,0.06990591436624527,-0.1386834979057312,-0.9122855067253113,-0.2181054949760437
3.04,-0.09067796170711517,0.06511236727237701,0.01664426550269127,-0.12376900017261505,-0.9247294664382935,-0.23301999270915985
3.06,-0.027829213067889214,0.057655736804008484,0.02729659713804722,-0.13182100653648376,-0.9545280337333679,-0.23082399368286133
3.08,0.002929390873759985,0.051264338195323944,0.05925358831882477,-0.13182100653648376,-0.9545280337333679,-0.23082399368286133
3.1,-0.0011983871227130294,0.03848154470324516,0.02836182899773121,-0.11962100118398666,-0.95306396484375,-0.2374119907617569
3.12,-0.015046416781842709,0.009720250964164734,-0.0238345880061388,-0.10739050805568695,-0.9528200030326843,-0.2349720001220703
3.14,-0.0555252730846405,-0.06697652488946915,-0.07816147059202194,-0.0785680040717125,-0.9748104810714722,-0.23863200843334198
3.16,-0.11198262125253677,-0.34500235319137573,-0.19107617437839508,-0.0014029999729245901,-0.9924090504646301,-0.2698945105075836
3.18,-0.013981183059513569,-0.11917294561862946,-0.17403244972229004,-0.09006650000810623,-0.9513559937477112,-0.11626599729061127
3.2,0.05299534276127815,0.10239552706480026,0.0027962366584688425,-0.09006650000810623,-0.9513559937477112,-0.11626599729061127
3.22,-0.006524552125483751,0.015046416781842709,0.04220985993742943,-0.038521502166986465,-0.9313479661941528,-0.21029749512672424
3.24,-0.060851436108350754,-0.07762885838747025,-0.02809552103281021,-0.1071465015411377,-0.8726965188980103,-0.22911600768566132
3.26,-0.07469946891069412,-0.13408620655536652,-0.19214141368865967,-0.1071465015411377,-0.8726965188980103,-0.22911600768566132
3.28,0.05512581020593643,-0.08402025699615479,-0.25712060928344727,-0.16628599166870117,-1.0129050016403198,-0.22667601704597473
3.3,0.22130216658115387,0.012915950268507004,-0.14314068853855133,-0.14868749678134918,-1.046881914138794,-0.18928299844264984
3.32,0.19999749958515167,0.033155377954244614,-0.03768261894583702,-0.11156899482011795,-0.979446530342102,-0.1761070042848587
3.34,-0.006524552125483751,-0.03928046673536301,-0.03661738336086273,-0.11156899482011795,-0.979446530342102,-0.1761070042848587
3.36,-0.12796111404895782,-0.0009320789249613881,-0.03342168778181076,-0.0966544970870018,-0.9394000172615051,-0.19809749722480774
3.38,-0.14820054173469543,0.015046416781842709,0.01877473294734955,-0.10202250629663467,-0.9445239901542664,-0.19196699559688568
3.4,-0.053394805639982224,0.025698747485876083,0.06777545064687729,-0.10251050442457199,-0.9628545045852661,-0.23228800296783447
3.42,0.04873441159725189,0.027829213067889214,0.08481918275356293,-0.0920184999704361,-0.972370445728302,-0.24522000551223755
3.44,0.04660394415259361,0.021437814459204674,0.05712312087416649,-0.07490800321102142,-0.9498920440673828,-0.22838400304317474
3.46,-0.006524552125483751,0.013981183059513569,0.008122402243316174,-0.07466399669647217,-0.9440360069274902,-0.2257000058889389
3.48,-0.04913387447595596,-0.0030625448562204838,-0.0025299284607172012,-0.06929599493741989,-0.9581879377365112,-0.2215214967727661
3.5,-0.07150376588106155,-0.006258244160562754,-0.005725627299398184,-0.06588000059127808,-0.9557480216026306,-0.2227414846420288
3.52,-0.06511236727237701,0.007589785382151604,-0.014247491955757141,-0.0773480013012886,-0.9481840133666992,-0.23058000206947327
3.54,-0.031024912372231483,0.004394086077809334,-0.02489982172846794,-0.08149600028991699,-0.9403759837150574,-0.2420480102300644
3.56,-0.00226362026296556,-0.004127778112888336,-0.02916075475513935,-0.08543050289154053,-0.9433040022850037,-0.2437559962272644
3.58,0.002929390873759985,-0.012649642303586006,-0.039813082665205,-0.09031049907207489,-0.9494039416313171,-0.24058398604393005
3.6,-0.019307348877191544,-0.008388710208237171,-0.03448691964149475,-0.08982250094413757,-0.9491599798202515,-0.23716799914836884
3.62,-0.036351077258586884,-0.0030625448562204838,-0.03342168778181076,-0.09714249521493912,-0.959926426410675,-0.22322949767112732
3.64,-0.03528584539890289,0.009720250964164734,-0.01957365684211254,-0.1042185053229332,-0.9667584896087646,-0.22594399750232697
3.66,-0.031024912372231483,0.028894444927573204,0.0038614696823060513,-0.10739050805568695,-0.9694425463676453,-0.2163975089788437
3.68,-0.015046416781842709,0.04274247586727142,0.010252867825329304,-0.10739050805568695,-0.95306396484375,-0.2181054949760437
3.7,-0.006524552125483751,0.05659050494432449,0.01664426550269127,-0.10519450902938843,-0.9474520087242126,-0.21444550156593323
3.72,0.00719032296910882,0.06937330216169357,0.02197043038904667,-0.10519450902938843,-0.9552600383758545,-0.20785750448703766
3.74,0.010386021807789803,0.07469946891069412,0.02410089783370495,-0.10470650345087051,-0.9687105417251587,-0.2122495025396347
3.76,0.026364516466856003,0.08109086751937866,0.02303566411137581,-0.10031449794769287,-0.9748104810714722,-0.20980948209762573
3.78,0.03169068321585655,0.08428656309843063,0.02303566411137581,-0.10495050251483917,-0.9750545024871826,-0.20956549048423767
3.8,0.04127778112888336,0.08961272984743118,0.02410089783370495,-0.10007049888372421,-0.9755424857139587,-0.20248949527740479
3.82,0.05512581020593643,0.09067796170711517,0.01770949922502041,-0.10299849510192871,-0.9745665192604065,-0.20395350456237793
3.84,0.06577813625335693,0.08854749798774719,0.01770949922502041,-0.1012905016541481,-0.9699305295944214,-0.2012694925069809
3.86,0.08175663650035858,0.07150376588106155,0.007057168986648321,-0.09275049716234207,-0.9701744914054871,-0.20151349902153015
3.88,0.09347419440746307,0.05978620424866676,0.007057168986648321,-0.08567450195550919,-0.9684664607048035,-0.1895269900560379
3.9,0.08708280324935913,0.05659050494432449,0.011318100616335869,-0.09738650172948837,-0.9694425463676453,-0.18245099484920502
3.92,0.07110430300235748,0.05232957378029823,0.011318100616335869,-0.09933849424123764,-0.9704185128211975,-0.18562299013137817
3.94,0.06471290439367294,0.047003407031297684,0.005991935729980469,-0.1042185053229332,-0.972370445728302,-0.18586701154708862
3.96,0.06471290439367294,0.050199106335639954,-0.0003994623839389533,-0.09445849806070328,-0.9540400505065918,-0.18464699387550354
3.98,0.06364767253398895,0.054460037499666214,-0.006790860556066036,-0.09714249521493912,-0.9513559937477112,-0.1883070021867752
4,0.06258244067430496,0.054460037499666214,-0.008921326138079166,-0.08884650468826294,-0.9467200040817261,-0.18611100316047668
4.02,0.05193011090159416,0.044872939586639404,-0.015312724746763706,-0.08689449727535248,-0.9440360069274902,-0.18269500136375427
4.04,0.03914731368422508,0.028894444927573204,-0.02276935614645481,-0.08125199377536774,-0.9450119733810425,-0.1878190040588379
4.06,0.021038351580500603,0.006524552125483751,-0.03448691964149475,-0.08591850101947784,-0.9523320198059082,-0.1878190040588379
4.08,0.009320789016783237,-0.007323476951569319,-0.03661738336086273,-0.083234503865242,-0.9511120319366455,-0.18562299013137817
4.1,0.010386021807789803,-0.013714875094592571,-0.03661738336086273,-0.09128650277853012,-0.9542840719223022,-0.18879500031471252
4.12,0.0050598569214344025,-0.019041040912270546,-0.03555215150117874,-0.08933449536561966,-0.9569680094718933,-0.1848910003900528
4.14,-0.005459319334477186,-0.030758604407310486,-0.04087831825017929,-0.08787050098180771,-0.9626104831695557,-0.198341503739357
4.16,-0.011850717477500439,-0.045671865344047546,-0.04300878196954727,-0.089090496301651,-0.9738345146179199,-0.1971215009689331
4.18,-0.012915950268507004,-0.05632419511675835,-0.04620448127388954,-0.08665049821138382,-0.9782265424728394,-0.1958709955215454
4.2,-0.020372580736875534,-0.057389430701732635,-0.04194355010986328,-0.09641050547361374,-0.9872849583625793,-0.17805899679660797
4.22,-0.019307348877191544,-0.055258963257074356,-0.03448691964149475,-0.10543850064277649,-0.9963130354881287,-0.18415901064872742
4.24,-0.017176883295178413,-0.05632419511675835,-0.02489982172846794,-0.10568249225616455,-0.999972939491272,-0.17879100143909454
4.26,-0.009720250964164734,-0.048867564648389816,-0.02276935614645481,-0.1118130013346672,-0.9885050058364868,-0.17513100802898407
4.28,-0.007589785382151604,-0.038215234875679016,-0.012117025442421436,-0.11132500320672989,-0.9706624746322632,-0.1650964915752411
4.3,0.0018641578499227762,-0.03608476743102074,-0.007856093347072601,-0.10617049783468246,-0.9513559937477112,-0.17195899784564972
4.32,0.0061250897124409676,-0.031823836266994476,-0.0003994623839389533,-0.10397449880838394,-0.9276575446128845,-0.16290049254894257
4.34,0.011451254598796368,-0.024367205798625946,0.008122402243316174,-0.1042185053229332,-0.9208254814147949,-0.16485249996185303
4.36,0.011451254598796368,-0.020106272771954536,0.011318100616335869,-0.10324250161647797,-0.9198495149612427,-0.16900049149990082
4.38,0.0018641578499227762,-0.006258244160562754,0.009187635034322739,-0.10177849978208542,-0.9235095381736755,-0.1731790006160736
4.4,0.002929390873759985,-0.008388710208237171,0.005991935729980469,-0.0920184999704361,-0.9244855046272278,-0.1785469949245453
4.42,0.015712186694145203,-0.015845341607928276,0.0017310036346316338,-0.09055449813604355,-0.9220454692840576,-0.17098300158977509
4.44,0.022103585302829742,-0.019041040912270546,0.0038614696823060513,-0.09275049716234207,-0.9249734878540039,-0.1655845046043396
4.46,0.023168819025158882,-0.021171506494283676,0.008122402243316174,-0.0949464961886406,-0.9450119733810425,-0.17000699043273926
4.48,0.03488638252019882,-0.025432437658309937,0.012383334338665009,-0.09397049993276596,-0.9709064960479736,-0.16802451014518738
4.5,0.04127778112888336,-0.020106272771954536,0.01770949922502041,-0.09787449985742569,-0.9916769862174988,-0.17708300054073334
4.52,0.04234301298856735,-0.017975807189941406,0.02090519852936268,-0.10007049888372421,-1.0116850137710571,-0.18098700046539307
4.54,0.04660394415259361,-0.017975807189941406,0.01664426550269127,-0.09689849615097046,-1.0156195163726807,-0.1878190040588379
4.56,0.05086487531661987,-0.004127778112888336,0.013448567129671574,-0.09689849615097046,-1.0156195163726807,-0.1878190040588379
4.58,0.04127778112888336,0.016111649572849274,0.015579032711684704,-0.1042185053229332,-1.0214755535125732,-0.18464699387550354
4.6,0.03169068321585655,0.026763979345560074,0.010252867825329304,-0.10153450071811676,-1.016351580619812,-0.1912350058555603
4.62,0.030625449493527412,0.022503048181533813,0.0038614696823060513,-0.1042185053229332,-0.9889929890632629,-0.18464699387550354
4.64,0.03808208182454109,0.017176883295178413,0.0027962366584688425,-0.09031049907207489,-0.9731025695800781,-0.18245099484920502
4.66,0.04021254554390907,0.00226362026296556,0.013448567129671574,-0.0773480013012886,-0.9694425463676453,-0.18806301057338715
4.68,0.019973119720816612,-0.005193010903894901,0.01664426550269127,-0.07002799957990646,-0.9828625321388245,-0.19760949909687042
4.7,-0.03209014609456062,-0.015845341607928276,0.0038614696823060513,-0.08225850015878677,-0.9726144671440125,-0.19809749722480774
4.72,-0.06511236727237701,-0.015845341607928276,-0.008921326138079166,-0.08225850015878677,-0.9726144671440125,-0.19809749722480774
4.74,-0.09280842542648315,-0.007323476951569319,-0.0185084231197834,-0.0861625000834465,-0.9547720551490784,-0.2076134830713272
4.76,-0.1205044835805893,0.008655018173158169,-0.03768261894583702,-0.08125199377536774,-0.9594384431838989,-0.20736949145793915
4.78,-0.12796111404895782,0.027829213067889214,-0.04833494871854782,-0.08125199377536774,-0.9594384431838989,-0.20736949145793915
4.8,-0.11837401986122131,0.044872939586639404,-0.04833494871854782,-0.07685999572277069,-0.9679784774780273,-0.211029514670372
4.82,-0.10026505589485168,0.050199106335639954,-0.05472634732723236,-0.07685999572277069,-0.9679784774780273,-0.211029514670372
4.84,-0.0981345921754837,0.054460037499666214,-0.05685681104660034,-0.06392800062894821,-0.9581879377365112,-0.22200950980186462
4.86,-0.09280842542648315,0.051264338195323944,-0.05366111174225807,-0.06392800062894821,-0.9581879377365112,-0.22200950980186462
4.88,-0.08109086751937866,0.051264338195323944,-0.04620448127388954,-0.057096000760793686,-0.9564799666404724,-0.2269200086593628
4.9,-0.06404713541269302,0.04913387447595596,-0.04726971685886383,-0.05218550190329552,-0.9498920440673828,-0.23058000206947327
4.92,-0.04274247586727142,0.03848154470324516,-0.03555215150117874,-0.05023350194096565,-0.9425719976425171,-0.234484001994133
4.94,-0.023568280041217804,0.020372580736875534,-0.02916075475513935,-0.04681750014424324,-0.9367160201072693,-0.23936399817466736
4.96,-0.00226362026296556,0.016111649572849274,-0.02063889056444168,-0.0441334992647171,-0.9335440397262573,-0.24180401861667633
4.98,0.028494983911514282,0.009720250964164734,-0.0025299284607172012,-0.04218149930238724,-0.9496479630470276,-0.2396080046892166
5,0.05299534276127815,0.0011983871227130294,0.009187635034322739,-0.049989499151706696,-0.9452559351921082,-0.23838798701763153
5.02,0.06577813625335693,-0.013714875094592571,0.014513799920678139,-0.049989499151706696,-0.9452559351921082,-0.23838798701763153
5.04,0.07110430300235748,-0.019041040912270546,0.01770949922502041,-0.053405504673719406,-0.9481840133666992,-0.2286279946565628
5.06,0.07216953486204147,-0.014780107885599136,0.02836182899773121,-0.053405504673719406,-0.9481840133666992,-0.2286279946565628
5.08,0.07856093347072601,-0.004127778112888336,0.02942706272006035,-0.06148799881339073,-0.959926426410675,-0.2244800180196762
5.1,0.06790860742330551,0.0001331541279796511,0.01983996480703354,-0.06758800148963928,-0.9596824645996094,-0.22322949767112732
5.12,0.03382114693522453,0.022503048181533813,0.013448567129671574,-0.08494249731302261,-0.9760304689407349,-0.20785750448703766
5.14,-0.007589785382151604,0.041677240282297134,0.005991935729980469,-0.09104250371456146,-0.9757865071296692,-0.20370949804782867
5.16,-0.05978620424866676,0.06511236727237701,-0.009986559860408306,-0.08494249731302261,-0.9721264839172363,-0.20151349902153015
5.18,-0.09174319356679916,0.07363422960042953,-0.03129122033715248,-0.08125199377536774,-0.961390495300293,-0.19687749445438385
5.2,-0.10559122264385223,0.07469946891069412,-0.03768261894583702,-0.07149200141429901,-0.9618784785270691,-0.198341503739357
5.22,-0.10452599078416824,0.08854749798774719,-0.015312724746763706,-0.07124799489974976,-0.9752985239028931,-0.20200151205062866
5.24,-0.10559122264385223,0.13102366030216217,-0.007856093347072601,-0.09470249712467194,-0.9745665192604065,-0.19562700390815735
5.26,-0.12370018661022186,0.12037133425474167,-0.03661738336086273,-0.089090496301651,-0.982618510723114,-0.19907349348068237
5.28,-0.14713531732559204,0.10133028775453568,-0.04620448127388954,-0.07930000126361847,-0.9863089919090271,-0.20053750276565552
5.3,-0.15991811454296112,0.08641702681779861,-0.05259587988257408,-0.06954000145196915,-0.9774945378303528,-0.19858549535274506
5.32,-0.16417904198169708,0.066177599132061,-0.05366111174225807,-0.06588000059127808,-0.9691985249519348,-0.20663751661777496
5.34,-0.15885287523269653,0.05978620424866676,-0.05153064802289009,-0.07076000422239304,-0.966514527797699,-0.21493349969387054
5.36,-0.14500483870506287,0.05232957378029823,-0.04194355010986328,-0.061243996024131775,-0.9591944813728333,-0.21761751174926758
5.38,-0.13541774451732635,0.041677240282297134,-0.0185084231197834,-0.06661199778318405,-0.955016016960144,-0.2252119928598404
5.4,-0.1205044835805893,0.037416309118270874,-0.004660394508391619,-0.06783200055360794,-0.9555040001869202,-0.2286279946565628
5.42,-0.11198262125253677,0.054460037499666214,0.02516612969338894,-0.0710040032863617,-0.9520879983901978,-0.22887201607227325
5.44,-0.13222205638885498,0.08002562820911407,0.0667102187871933,-0.07076000422239304,-0.9506240487098694,-0.2327760010957718
5.46,-0.18122276663780212,0.08641702681779861,0.05392742156982422,-0.05514400079846382,-0.9501360654830933,-0.23985201120376587
5.48,-0.24513675272464752,0.0778951644897461,-0.0025299284607172012,-0.04608549922704697,-0.9347639679908752,-0.24936801195144653
5.5,-0.3026593327522278,0.009720250964164734,-0.08987903594970703,-0.04657349735498428,-0.9459880590438843,-0.2655025124549866
5.52,-0.41450878977775574,-0.025432437658309937,-0.08348763734102249,-0.06368400156497955,-1.0029009580612183,-0.2584264874458313
5.54,-0.469900906085968,0.08002562820911407,0.01877473294734955,-0.07368800044059753,-0.8661084771156311,-0.247172012925148
5.56,-0.19294032454490662,0.19387240707874298,0.15405932068824768,-0.07368800044059753,-0.8661084771156311,-0.247172012925148
5.58,0.1541924774646759,0.17682868242263794,0.21158191561698914,-0.05563200265169144,-0.838018000125885,-0.27672648429870605
5.6,0.39173945784568787,0.11184946447610855,0.2041252851486206,-0.06929599493741989,-0.8846829533576965,-0.2745305001735687
5.62,0.4205007255077362,0.051264338195323944,0.07949301600456238,-0.05660799890756607,-0.9435479640960693,-0.2579385042190552
5.64,0.3864132761955261,-0.026497671380639076,-0.0003994623839389533,-0.05660799890756607,-0.9435479640960693,-0.2579385042190552
5.66,0.3022598624229431,-0.06484606117010117,-0.012117025442421436,-0.026290997862815857,-0.9435479640960693,-0.24155999720096588
5.68,0.16377957165241241,-0.0936073511838913,0.013448567129671574,-0.049989499151706696,-0.9345200061798096,-0.230335995554924
5.7,0.09560466557741165,-0.09041165560483932,-0.0185084231197834,-0.02580299973487854,-0.9938730001449585,-0.2554984986782074
5.72,0.13075734674930573,-0.13302096724510193,-0.05259587988257408,-0.05660799890756607,-0.9672464728355408,-0.25330251455307007
5.74,0.1659100502729416,-0.15432563424110413,-0.05898727849125862,-0.06685599684715271,-0.965538501739502,-0.24619601666927338
5.76,0.1754971444606781,-0.15006470680236816,-0.05792204663157463,-0.09104250371456146,-0.9430599808692932,-0.23716799914836884
5.78,0.07430000603199005,-0.18415215611457825,-0.0717700719833374,-0.09104250371456146,-0.9430599808692932,-0.23716799914836884
5.8,-0.040612008422613144,-0.06804175674915314,-0.1037270650267601,-0.11352100223302841,-0.96236652135849,-0.2408280074596405
5.82,0.0370168462395668,-0.05312849581241608,-0.05898727849125862,-0.058803997933864594,-0.9411080479621887,-0.24595199525356293
5.84,0.18188853561878204,-0.0723026916384697,0.01877473294734955,-0.04340149834752083,-0.9792025089263916,-0.23131200671195984
5.86,0.16271434724330902,-0.06591129302978516,0.03581846132874489,-0.04340149834752083,-0.9792025089263916,-0.23131200671195984
5.88,0.07962616533041,-0.06591129302978516,0.02303566411137581,-0.03803350031375885,-0.9770064353942871,-0.21468950808048248
5.9,0.025299284607172012,-0.06271559745073318,0.02729659713804722,-0.04193750023841858,-0.9576999545097351,-0.20102550089359283
5.92,-0.00226362026296556,-0.033954303711652756,0.05818835273385048,-0.05291750282049179,-0.9508680105209351,-0.21298149228096008
5.94,-0.005459319334477186,0.027829213067889214,0.04860125854611397,-0.0680759996175766,-0.9435479640960693,-0.2054174840450287
5.96,-0.060851436108350754,0.1374150663614273,0.008122402243316174,-0.09031049907207489,-0.9286335110664368,-0.2093214988708496
5.98,-0.23874534666538239,0.31530898809432983,-0.12077079713344574,-0.09616649895906448,-0.9933850169181824,-0.22618800401687622
6,-0.33781203627586365,0.35898351669311523,-0.14953207969665527,-0.09153049439191818,-1.0148874521255493,-0.23350800573825836
6.02,-0.408117413520813,0.39094051718711853,-0.1580539494752884,-0.06539200246334076,-0.994117021560669,-0.2257000058889389
6.04,-0.34952959418296814,0.3217003643512726,-0.20385897159576416,-0.048525501042604446,-0.9555040001869202,-0.22423599660396576
6.06,0.0007989247678779066,-0.045671865344047546,-0.12716218829154968,-0.029737500473856926,-0.9088694453239441,-0.2117614895105362
6.08,0.3022598624229431,-0.21291345357894897,-0.05259587988257408,-0.024826999753713608,-0.9767624735832214,-0.26574650406837463
6.1,0.42582690715789795,-0.26937079429626465,-0.03768261894583702,-0.0001829999964684248,-0.9709064960479736,-0.2811489999294281
6.12,0.3970656096935272,-0.2736317217350006,-0.02703028731048107,-0.03510550037026405,-0.9576999545097351,-0.25818249583244324
6.14,0.24686774611473083,-0.23954427242279053,-0.03768261894583702,-0.05490000173449516,-0.9574559926986694,-0.22030149400234222
6.16,0.05938674136996269,-0.16497796773910522,-0.06005251035094261,-0.059779997915029526,-0.9618784785270691,-0.2046855092048645
6.18,-0.033155377954244614,-0.12023817747831345,-0.04833494871854782,-0.06100000441074371,-0.9672464728355408,-0.19635899364948273
6.2,0.016777420416474342,-0.1255643367767334,-0.04940018057823181,-0.03266550227999687,-0.9513559937477112,-0.2269200086593628
6.22,0.08069140464067459,-0.11917294561862946,-0.03768261894583702,-0.03266550227999687,-0.9513559937477112,-0.2269200086593628
6.24,0.08069140464067459,-0.11597724258899689,0.000665770610794425,-0.03510550037026405,-0.9584320187568665,-0.22935999929904938
6.26,0.09560466557741165,-0.12343387305736542,0.008122402243316174,-0.03534949943423271,-0.9638304710388184,-0.2134695053100586
6.28,0.11371362209320068,-0.11065108329057693,-0.0014646954368799925,-0.07197999954223633,-0.95306396484375,-0.20151349902153015
6.3,0.08814803510904312,-0.07869409024715424,-0.014247491955757141,-0.07393199950456619,-0.9711505174636841,-0.1988295018672943
6.32,0.0370168462395668,-0.06484606117010117,-0.01744319126009941,-0.06319600343704224,-0.9728584289550781,-0.19635899364948273
6.34,0.04873441159725189,-0.06378082931041718,-0.015312724746763706,-0.05612000450491905,-0.9711505174636841,-0.19660300016403198
6.36,0.09134373068809509,-0.045671865344047546,0.0027962366584688425,-0.06002400070428848,-0.9516000151634216,-0.19440700113773346
6.38,0.10519175976514816,-0.10532491654157639,-0.01744319126009941,-0.053405504673719406,-0.9652945399284363,-0.2000495046377182
6.4,0.06151720881462097,-0.09147688746452332,-0.004660394508391619,-0.04022950306534767,-0.972370445728302,-0.18098700046539307
6.42,0.06790860742330551,-0.07017222791910172,0.06244928762316704,-0.03339749947190285,-0.9782265424728394,-0.19074700772762299
6.44,0.11584409326314926,-0.0925421193242073,0.06244928762316704,-0.03339749947190285,-0.9782265424728394,-0.19074700772762299
6.46,0.14140968024730682,-0.058454662561416626,0.05818835273385048,-0.06490399688482285,-0.964318573474884,-0.18855100870132446
6.48,0.11903978884220123,-0.015845341607928276,0.03581846132874489,-0.08173999935388565,-0.9657825231552124,-0.18049900233745575
6.5,0.08921326696872711,0.00226362026296556,0.02090519852936268,-0.08372250199317932,-0.9494039416313171,-0.18855100870132446
6.52,0.08708280324935913,0.009720250964164734,0.03155753016471863,-0.07832400500774384,-0.9498920440673828,-0.18171900510787964
6.54,0.09986559301614761,-0.006258244160562754,0.06244928762316704,-0.062219999730587006,-0.9450119733810425,-0.18245099484920502
6.56,0.13927921652793884,0.0001331541279796511,0.09334104508161545,-0.030713500455021858,-0.9450119733810425,-0.18757499754428864
6.58,0.16910573840141296,-0.017975807189941406,0.11890663951635361,-0.030713500455021858,-0.9450119733810425,-0.18757499754428864
6.6,0.18401899933815002,-0.005193010903894901,0.1615159511566162,-0.017262998968362808,-0.9576999545097351,-0.1936749964952469
6.62,0.14567062258720398,0.025698747485876083,0.1402112990617752,-0.058560002595186234,-0.9865529537200928,-0.19907349348068237
6.64,0.08388710021972656,0.0555252730846405,0.1199718713760376,-0.07197999954223633,-0.979446530342102,-0.18513499200344086
6.66,0.06577813625335693,0.09280842542648315,0.13595037162303925,-0.07441999763250351,-0.9660264849662781,-0.18293899297714233
6.68,0.07110430300235748,0.1065233051776886,0.13701559603214264,-0.06441599875688553,-0.9789584875106812,-0.18684299290180206
6.7,0.0370168462395668,0.1374150663614273,0.11784140020608902,-0.06929599493741989,-0.9752985239028931,-0.18342699110507965
6.72,-0.036351077258586884,0.17682868242263794,0.09227581322193146,-0.08173999935388565,-0.982618510723114,-0.1685125082731247
6.74,-0.027829213067889214,0.17895914614200592,0.09334104508161545,-0.07002799957990646,-0.9726144671440125,-0.17122700810432434
6.76,-0.004394086077809334,0.16830681264400482,0.09121058136224747,-0.07002799957990646,-0.9726144671440125,-0.17122700810432434
6.78,0.05512581020593643,0.10133028775453568,0.06777545064687729,-0.06295200437307358,-0.9628545045852661,-0.15997250378131866
6.8,0.13608351349830627,-0.020106272771954536,0.08694964647293091,-0.07368800044059753,-0.9704185128211975,-0.16631650924682617
6.82,0.20212796330451965,-0.06591129302978516,0.11464570462703705,-0.07637199759483337,-0.9672464728355408,-0.16168050467967987
6.84,0.2596505582332611,-0.0712374597787857,0.13595037162303925,-0.08762650191783905,-0.9557480216026306,-0.15143249928951263
6.86,0.2809551954269409,-0.055258963257074356,0.15405932068824768,-0.09226249903440475,-0.9674904942512512,-0.1294419914484024
6.88,0.2734985649585724,-0.03608476743102074,0.1615159511566162,-0.10275450348854065,-0.9755424857139587,-0.123586006462574
6.9,0.24580252170562744,-0.025432437658309937,0.1519288569688797,-0.10177849978208542,-0.9816425442695618,-0.13212600350379944
6.92,0.2085193693637848,-0.016910573467612267,0.13808083534240723,-0.10909850150346756,-0.9880170226097107,-0.12529399991035461
6.94,0.16910573840141296,0.0011983871227130294,0.12103710323572159,-0.11571700125932693,-0.9865529537200928,-0.11992600560188293
6.96,0.1318225860595703,0.022503048181533813,0.10612384229898453,-0.115960992872715,-0.9887490272521973,-0.11577799916267395
6.98,0.10306129604578018,0.031024912372231483,0.08694964647293091,-0.11791300028562546,-0.9889929890632629,-0.10769549757242203
7,0.09134373068809509,0.022503048181533813,0.07310161739587784,-0.12084099650382996,-0.9914329648017883,-0.10330349951982498
7.02,0.08388710021972656,0.0011983871227130294,0.06351451575756073,-0.10986100137233734,-0.9953369498252869,-0.10427950322628021
7.04,0.08921326696872711,-0.016910573467612267,0.0560578890144825,-0.10836649686098099,-0.9843264818191528,-0.09549549967050552
7.06,0.09666989743709564,-0.040345702320337296,0.05179695412516594,-0.11230100691318512,-0.9767624735832214,-0.08988349884748459
7.08,0.11371362209320068,-0.06378082931041718,0.05925358831882477,-0.11986500769853592,-0.9779825210571289,-0.08594900369644165
7.1,0.11371362209320068,-0.08508548885583878,0.06457975506782532,-0.1345050036907196,-0.9740785360336304,-0.08619300276041031
7.12,0.10625699162483215,-0.08828118443489075,0.06244928762316704,-0.1362130045890808,-0.9735905528068542,-0.08326499909162521
7.14,0.09453943371772766,-0.08188978582620621,0.05499265342950821,-0.1315770000219345,-0.9726144671440125,-0.0769209936261177
7.16,0.07536523789167404,-0.06378082931041718,0.04220985993742943,-0.13499300181865692,-0.9731025695800781,-0.07838500291109085
7.18,0.06684337556362152,-0.055258963257074356,0.03368799388408661,-0.13426099717617035,-0.9699305295944214,-0.07179700583219528
7.2,0.05299534276127815,-0.03928046673536301,0.02197043038904667,-0.13182100653648376,-0.96236652135849,-0.0769209936261177
7.22,0.024234050884842873,-0.019041040912270546,-0.0003994623839389533,-0.13182100653648376,-0.96236652135849,-0.0769209936261177
7.24,0.012516488321125507,-0.013714875094592571,-0.015312724746763706,-0.13596899807453156,-0.9752985239028931,-0.07862900197505951
7.26,-0.004394086077809334,-0.004127778112888336,-0.03235645219683647,-0.12962500751018524,-0.9811544418334961,-0.06667300313711166
7.28,-0.006524552125483751,0.00226362026296556,-0.03555215150117874,-0.12962500751018524,-0.9811544418334961,-0.06667300313711166
7.3,-0.009720250964164734,0.004394086077809334,-0.03235645219683647,-0.13426099717617035,-0.9892370104789734,-0.06691699475049973
7.32,-0.009720250964164734,-0.001997311832383275,-0.03448691964149475,-0.1357250064611435,-0.9907009601593018,-0.06838100403547287
7.34,-0.007589785382151604,-0.009453942999243736,-0.03235645219683647,-0.1298689991235733,-0.9880170226097107,-0.07472499459981918
7.36,-0.004394086077809334,-0.020106272771954536,-0.02916075475513935,-0.13060098886489868,-0.9813984632492065,-0.07496900111436844
7.38,-0.005459319334477186,-0.015845341607928276,-0.02809552103281021,-0.1281609982252121,-0.978470504283905,-0.066429004073143
7.4,-0.008655018173158169,-0.014780107885599136,-0.0238345880061388,-0.12742900848388672,-0.9821305274963379,-0.06911300122737885
7.42,-0.00226362026296556,-0.013714875094592571,-0.015312724746763706,-0.13084499537944794,-0.979446530342102,-0.06520900130271912
7.44,-0.00226362026296556,-0.009453942999243736,-0.013182258233428001,-0.1298689991235733,-0.9792025089263916,-0.06398900598287582
7.46,-0.010785484686493874,-0.004127778112888336,-0.01744319126009941,-0.13426099717617035,-0.9699305295944214,-0.06960099935531616
7.48,-0.029959678649902344,0.0011983871227130294,-0.0238345880061388,-0.12401299923658371,-0.9701744914054871,-0.07155299931764603
7.5,-0.040612008422613144,0.0011983871227130294,-0.03342168778181076,-0.12206100672483444,-0.9779825210571289,-0.06276899576187134
7.52,-0.054460037499666214,0.007589785382151604,-0.04087831825017929,-0.12206100672483444,-0.9779825210571289,-0.06276899576187134
7.54,-0.06404713541269302,0.005459319334477186,-0.04726971685886383,-0.12425700575113297,-0.9818865656852722,-0.07204099744558334
7.56,-0.0768299326300621,0.005459319334477186,-0.04940018057823181,-0.12450099736452103,-0.9816425442695618,-0.07496900111436844
7.58,-0.09387365728616714,0.012915950268507004,-0.05366111174225807,-0.12376900017261505,-0.9738345146179199,-0.07326100021600723
7.6,-0.10133028775453568,0.015046416781842709,-0.05259587988257408,-0.12157300114631653,-0.984814465045929,-0.07643300294876099
7.62,-0.10772168636322021,0.008655018173158169,-0.05792204663157463,-0.11327699571847916,-0.9887490272521973,-0.0827770009636879
7.64,-0.11091738939285278,0.015046416781842709,-0.0611177459359169,-0.11400900036096573,-0.9904569983482361,-0.08521699905395508
7.66,-0.11837401986122131,0.024633513763546944,-0.06324820965528488,-0.11376499384641647,-0.9855464696884155,-0.0950075015425682
7.68,-0.1311568170785904,0.041677240282297134,-0.06537867337465286,-0.10937299579381943,-0.9882610440254211,-0.10574350506067276
7.7,-0.14713531732559204,0.060851436108350754,-0.06218297779560089,-0.11498500406742096,-0.9921650290489197,-0.11919399350881577
7.72,-0.1620485782623291,0.0778951644897461,-0.05792204663157463,-0.11693699657917023,-0.9889929890632629,-0.12456199526786804
7.74,-0.16098333895206451,0.09174319356679916,-0.06324820965528488,-0.10787849128246307,-0.9853024482727051,-0.12456199526786804
7.76,-0.16950520873069763,0.10026505589485168,-0.07603100687265396,-0.09714249521493912,-0.9816425442695618,-0.12626999616622925
7.78,-0.18867939710617065,0.09706936031579971,-0.09200949966907501,-0.08518649637699127,-0.9767624735832214,-0.14216050505638123
7.8,-0.20359265804290771,0.09387365728616714,-0.10479229688644409,-0.07905599474906921,-0.9745665192604065,-0.14606450498104095
7.82,-0.20891882479190826,0.0874822586774826,-0.11224892735481262,-0.08003199845552444,-0.9760304689407349,-0.14826050400733948
7.84,-0.20998406410217285,0.08215609937906265,-0.10798799991607666,-0.0773480013012886,-0.98066645860672,-0.15314050018787384
7.86,-0.2057231217622757,0.07896039634943008,-0.10585752874612808,-0.07320000231266022,-0.9809104800224304,-0.1575324982404709
7.88,-0.2057231217622757,0.07576470077037811,-0.10053136944770813,-0.06709999591112137,-0.9738345146179199,-0.16314449906349182
7.9,-0.19613602757453918,0.06511236727237701,-0.09946613013744354,-0.0663679987192154,-0.9672464728355408,-0.15948450565338135
7.92,-0.1844184696674347,0.05232957378029823,-0.10053136944770813,-0.0634400025010109,-0.9630984663963318,-0.15850849449634552
7.94,-0.1631138026714325,0.036351077258586884,-0.10266183316707611,-0.06148799881339073,-0.9564799666404724,-0.1621685028076172
7.96,-0.14820054173469543,0.03209014609456062,-0.10692276805639267,-0.055876001715660095,-0.9576999545097351,-0.1668044924736023
7.98,-0.1396786868572235,0.024633513763546944,-0.10266183316707611,-0.056363996118307114,-0.9591944813728333,-0.1668044924736023
8,-0.13222205638885498,0.023568280041217804,-0.1037270650267601,-0.05023350194096565,-0.9616345167160034,-0.1668044924736023
8.02,-0.11837401986122131,0.022503048181533813,-0.10266183316707611,-0.04803749918937683,-0.9569680094718933,-0.16485249996185303
8.04,-0.1087869256734848,0.015046416781842709,-0.0930747389793396,-0.04535349830985069,-0.9621224999427795,-0.1621685028076172
8.06,-0.0991998240351677,0.018242115154862404,-0.08348763734102249,-0.04218149930238724,-0.9679784774780273,-0.16951899230480194
8.08,-0.09600412845611572,0.022503048181533813,-0.07603100687265396,-0.04096150025725365,-0.9704185128211975,-0.17366699874401093
8.1,-0.0991998240351677,0.024633513763546944,-0.06537867337465286,-0.04169349744915962,-0.9738345146179199,-0.17464299499988556
8.12,-0.10985215753316879,0.027829213067889214,-0.0504654161632061,-0.037301499396562576,-0.9767624735832214,-0.18098700046539307
8.14,-0.11730878800153732,0.031024912372231483,-0.04087831825017929,-0.03266550227999687,-0.976518452167511,-0.18293899297714233
8.16,-0.12263495475053787,0.034220609813928604,-0.02916075475513935,-0.03534949943423271,-0.9674904942512512,-0.18415901064872742
8.18,-0.12370018661022186,0.03209014609456062,-0.01957365684211254,-0.02802949957549572,-0.9604145288467407,-0.18855100870132446
8.2,-0.12583065032958984,0.03848154470324516,-0.015312724746763706,-0.026047000661492348,-0.9552600383758545,-0.19858549535274506
8.22,-0.12796111404895782,0.051264338195323944,-0.00359516148455441,-0.029981501400470734,-0.9630984663963318,-0.20444151759147644
8.24,-0.1311568170785904,0.05978620424866676,0.005991935729980469,-0.03437349945306778,-0.9638304710388184,-0.20322149991989136
8.26,-0.12583065032958984,0.07043853402137756,0.015579032711684704,-0.04193750023841858,-0.9581879377365112,-0.20248949527740479
8.28,-0.11304785311222076,0.0778951644897461,0.02410089783370495,-0.03583750128746033,-0.9559919834136963,-0.20322149991989136
8.3,-0.10346075892448425,0.07896039634943008,0.02836182899773121,-0.03510550037026405,-0.9552600383758545,-0.2059054970741272
8.32,-0.10559122264385223,0.08535179495811462,0.03368799388408661,-0.03778950124979019,-0.9638304710388184,-0.20663751661777496
8.34,-0.10772168636322021,0.08641702681779861,0.04114462435245514,-0.04144950211048126,-0.9621224999427795,-0.21029749512672424
8.36,-0.10559122264385223,0.08322133123874664,0.05073172226548195,-0.04022950306534767,-0.964318573474884,-0.20810149610042572
8.38,-0.10346075892448425,0.07256899774074554,0.06138405203819275,-0.03925349935889244,-0.9616345167160034,-0.2105415016412735
8.4,-0.0991998240351677,0.061916667968034744,0.06457975506782532,-0.04681750014424324,-0.9662705063819885,-0.2105415016412735
8.42,-0.09706936031579971,0.0555252730846405,0.06884068250656128,-0.04340149834752083,-0.9591944813728333,-0.21371349692344666
8.44,-0.08961272984743118,0.041677240282297134,0.07203638553619385,-0.04144950211048126,-0.9630984663963318,-0.2122495025396347
8.46,-0.08002562820911407,0.03954677656292915,0.07310161739587784,-0.04632950201630592,-0.9533079862594604,-0.21590949594974518
8.48,-0.06937330216169357,0.03528584539890289,0.07949301600456238,-0.048769500106573105,-0.9525759816169739,-0.2151774913072586
8.5,-0.06404713541269302,0.031024912372231483,0.0773625448346138,-0.051453497260808945,-0.9506240487098694,-0.22347350418567657
8.52,-0.05232957378029823,0.037416309118270874,0.07203638553619385,-0.05218550190329552,-0.9442799687385559,-0.2239920049905777
8.54,-0.043807707726955414,0.044872939586639404,0.06457975506782532,-0.057583998888731,-0.9359839558601379,-0.22176551818847656
8.56,-0.03528584539890289,0.05978620424866676,0.05392742156982422,-0.049989499151706696,-0.9376920461654663,-0.22594399750232697
8.58,-0.020372580736875534,0.08002562820911407,0.0454055592417717,-0.0634400025010109,-0.9271695613861084,-0.22618800401687622
8.6,-0.013981183059513569,0.10026505589485168,0.02516612969338894,-0.059779997915029526,-0.9315919876098633,-0.2396080046892166
8.62,-0.005459319334477186,0.11930610239505768,0.012383334338665009,-0.06002400070428848,-0.9279015064239502,-0.23546001315116882
8.64,0.00719032296910882,0.15445879101753235,0.02303566411137581,-0.06929599493741989,-0.9372040629386902,-0.23228800296783447
8.66,0.0050598569214344025,0.1906767040491104,0.0667102187871933,-0.10812249779701233,-0.9381800293922424,-0.2281399965286255
8.68,-0.015046416781842709,0.2545906901359558,0.12529803812503815,-0.14087949693202972,-0.9342759847640991,-0.23716799914836884
8.7,-0.022503048181533813,0.3003957271575928,0.13488513231277466,-0.1479555070400238,-0.9235095381736755,-0.27379849553108215
8.72,-0.03209014609456062,0.3312874734401703,0.098667211830616,-0.1479555070400238,-0.9235095381736755,-0.27379849553108215
8.74,-0.051264338195323944,0.34513550996780396,0.06777545064687729,-0.07539600133895874,-1.013911485671997,-0.29603299498558044
8.76,-0.0874822586774826,0.35791829228401184,0.02410089783370495,-0.07539600133895874,-1.013911485671997,-0.29603299498558044
8.78,-0.09600412845611572,0.3483312129974365,-0.014247491955757141,-0.06026799976825714,-1.0168395042419434,-0.28944501280784607
8.8,-0.10346075892448425,0.32276561856269836,-0.0185084231197834,-0.07466399669647217,-1.0014370679855347,-0.2845650017261505
8.82,-0.11198262125253677,0.26950395107269287,0.012383334338665009,-0.07954400032758713,-0.9887490272521973,-0.28261297941207886
8.84,-0.12263495475053787,0.2332860380411148,0.05925358831882477,-0.08787050098180771,-0.9699305295944214,-0.2974970042705536
8.86,-0.1290263533592224,0.1928071826696396,0.10718907415866852,-0.08076400309801102,-0.9481840133666992,-0.30237701535224915
8.88,-0.12689588963985443,0.1800243854522705,0.12103710323572159,-0.057096000760793686,-0.9196054935455322,-0.2904210090637207
8.9,-0.11624355614185333,0.1480673849582672,0.1093195378780365,-0.052673500031232834,-0.9044774770736694,-0.27794650197029114
8.92,-0.11730878800153732,0.13102366030216217,0.08481918275356293,-0.05364949628710747,-0.9120414853096008,-0.28310099244117737
8.94,-0.1194392517209053,0.11930610239505768,0.05818835273385048,-0.05612000450491905,-0.9257054924964905,-0.28773701190948486
8.96,-0.11730878800153732,0.1171756312251091,0.02516612969338894,-0.057096000760793686,-0.9398880004882812,-0.28773701190948486
8.98,-0.10346075892448425,0.10758853703737259,0.007057168986648321,-0.058560002595186234,-0.9413520693778992,-0.28846901655197144
9,-0.08428656309843063,0.08854749798774719,-0.006790860556066036,-0.0634400025010109,-0.9459880590438843,-0.28846901655197144
9.02,-0.06298190355300903,0.05659050494432449,-0.0003994623839389533,-0.07173600047826767,-0.9450119733810425,-0.2928610146045685
9.04,-0.05659050494432449,0.017176883295178413,0.004926702938973904,-0.07710400223731995,-0.9389119744300842,-0.2933489978313446
9.06,-0.04913387447595596,-0.016910573467612267,0.009187635034322739,-0.0710040032863617,-0.9283894896507263,-0.2921290099620819
9.08,-0.03848154470324516,-0.03608476743102074,0.014513799920678139,-0.07954400032758713,-0.922777533531189,-0.29652100801467896
9.1,-0.018242115154862404,-0.054193731397390366,0.01770949922502041,-0.08100800216197968,-0.9215574860572815,-0.28846901655197144
9.12,0.0007989247678779066,-0.0712374597787857,0.02516612969338894,-0.08640650659799576,-0.9340320229530334,-0.28602898120880127
9.14,0.012516488321125507,-0.07869409024715424,0.03049229457974434,-0.09177450090646744,-0.9386680126190186,-0.2806609869003296
9.16,0.025299284607172012,-0.08721595257520676,0.0454055592417717,-0.10739050805568695,-0.9340320229530334,-0.2769705057144165
9.18,0.03382114693522453,-0.08188978582620621,0.0667102187871933,-0.1147409975528717,-0.9369600415229797,-0.27331048250198364
9.2,0.03808208182454109,-0.0829550251364708,0.07629731297492981,-0.11815699189901352,-0.9308295249938965,-0.28383299708366394
9.22,0.04873441159725189,-0.07336792349815369,0.08694964647293091,-0.119377002120018,-0.9264375567436218,-0.28041699528694153
9.24,0.05725627392530441,-0.06697652488946915,0.09121058136224747,-0.11913299560546875,-0.9225335121154785,-0.28017300367355347
9.26,0.07430000603199005,-0.05312849581241608,0.07523208111524582,-0.11498500406742096,-0.9093575477600098,-0.28090500831604004
9.28,0.08495233207941055,-0.037150003015995026,0.07203638553619385,-0.11327699571847916,-0.9259494543075562,-0.2833450138568878
9.3,0.10412652790546417,-0.017975807189941406,0.0667102187871933,-0.1223049983382225,-0.9293654561042786,-0.27623850107192993
9.32,0.1339530497789383,-0.0009320789249613881,0.06777545064687729,-0.12401299923658371,-0.9364719390869141,-0.27672648429870605
9.34,0.14886631071567535,0.017176883295178413,0.0773625448346138,-0.13255299627780914,-0.9457440376281738,-0.26501449942588806
9.36,0.15951864421367645,0.04913387447595596,0.07416684925556183,-0.13255299627780914,-0.9457440376281738,-0.26501449942588806
9.38,0.1659100502729416,0.060851436108350754,0.07842778414487839,-0.1269410103559494,-0.9547720551490784,-0.25940248370170593
9.4,0.16164910793304443,0.08428656309843063,0.06351451575756073,-0.12425700575113297,-0.9591944813728333,-0.2547664940357208
9.42,0.16058388352394104,0.10133028775453568,0.04860125854611397,-0.11864499747753143,-0.9567239880561829,-0.24595199525356293
9.44,0.15206201374530792,0.11184946447610855,0.03049229457974434,-0.11034899950027466,-0.9481840133666992,-0.24009600281715393
9.46,0.1435401439666748,0.12037133425474167,0.010252867825329304,-0.10251050442457199,-0.9398880004882812,-0.23424001038074493
9.48,0.13821399211883545,0.1171756312251091,-0.009986559860408306,-0.09519050270318985,-0.9430599808692932,-0.23375199735164642
9.5,0.13501828908920288,0.10865376889705658,-0.02489982172846794,-0.0861625000834465,-0.9423280358314514,-0.22643199563026428
9.52,0.13075734674930573,0.10439283400774002,-0.02809552103281021,-0.08347850292921066,-0.9464760422706604,-0.22472400963306427
9.54,0.12862688302993774,0.10026505589485168,-0.02170412242412567,-0.08469849824905396,-0.9506240487098694,-0.21786150336265564
9.56,0.1328878253698349,0.08215609937906265,-0.0185084231197834,-0.08957850188016891,-0.9494039416313171,-0.21444550156593323
9.58,0.1446053832769394,0.06830807030200958,-0.015312724746763706,-0.08250249922275543,-0.9508680105209351,-0.21444550156593323
9.6,0.16697527468204498,0.051264338195323944,-0.02703028731048107,-0.08640650659799576,-0.9481840133666992,-0.2029774934053421
9.62,0.19254086911678314,0.027829213067889214,-0.03768261894583702,-0.08125199377536774,-0.9518439769744873,-0.2076134830713272
9.64,0.2085193693637848,-0.009453942999243736,-0.06537867337465286,-0.06880799680948257,-0.9506240487098694,-0.20444151759147644
9.66,0.22449785470962524,-0.055258963257074356,-0.08348763734102249,-0.06002400070428848,-0.9576999545097351,-0.20151349902153015
9.68,0.2383458912372589,-0.10745538026094437,-0.10798799991607666,-0.05072150006890297,-0.9657825231552124,-0.1958709955215454
9.7,0.25538963079452515,-0.17349982261657715,-0.1250317245721817,-0.04950150102376938,-0.9750545024871826,-0.18708699941635132
9.72,0.26710718870162964,-0.2214353084564209,-0.1250317245721817,-0.0470614992082119,-0.9684664607048035,-0.17342300713062286
9.74,0.26604193449020386,-0.2640446424484253,-0.11864032596349716,-0.054655998945236206,-0.964074432849884,-0.16290049254894257
9.76,0.272433340549469,-0.30026257038116455,-0.11224892735481262,-0.05438150092959404,-0.9579439759254456,-0.15240849554538727
9.78,0.2809551954269409,-0.33328479528427124,-0.11011846363544464,-0.055876001715660095,-0.9594384431838989,-0.14264850318431854
9.8,0.30971649289131165,-0.37376365065574646,-0.10585752874612808,-0.04974550008773804,-0.9555040001869202,-0.1282220035791397
9.82,0.32889068126678467,-0.40572062134742737,-0.1037270650267601,-0.051453497260808945,-0.9537959694862366,-0.10696350038051605
9.84,0.35232582688331604,-0.4344819188117981,-0.09413997083902359,-0.05023350194096565,-0.9540400505065918,-0.09647150337696075
9.86,0.3587172329425812,-0.47283029556274414,-0.08455286920070648,-0.05072150006890297,-0.9611465334892273,-0.08692499995231628
9.88,0.3459344208240509,-0.5089150667190552,-0.08774857223033905,-0.02949349954724312,-0.9626104831695557,-0.07423700392246246
9.9,0.34273871779441833,-0.5685681104660034,-0.08881380409002304,-0.02949349954724312,-0.9626104831695557,-0.07423700392246246
9.92,0.3438039720058441,-0.5770899653434753,-0.12077079713344574,-0.0021349999587982893,-0.972370445728302,-0.06862500309944153
9.94,0.34167349338531494,-0.571763813495636,-0.1367492824792862,-0.012382999993860722,-0.982618510723114,-0.07496900111436844
9.96,0.31823837757110596,-0.5131760239601135,-0.1250317245721817,-0.016530999913811684,-1.0090008974075317,-0.07033299654722214
9.98,0.24260681867599487,-0.40998154878616333,-0.09200949966907501,-0.04559750109910965,-1.095499038696289,-0.10403549671173096
10,0.12862688302993774,-0.32050198316574097,-0.06324820965528488,-0.04559750109910965,-1.095499038696289,-0.10403549671173096
10.02,-0.004394086077809334,-0.22569625079631805,-0.07709623873233795,-0.04584150016307831,-1.0861965417861938,-0.12919799983501434
10.04,-0.03954677656292915,-0.16604319214820862,-0.10585752874612808,-0.028517499566078186,-1.016595482826233,-0.12504999339580536
10.06,-0.047003407031297684,-0.10958584398031235,-0.1356840580701828,-0.009455000050365925,-0.9921650290489197,-0.11257550120353699
10.08,-0.04274247586727142,-0.060585130006074905,-0.1569887101650238,0.0017994999652728438,-0.9857904314994812,-0.09378749877214432
10.1,-0.06511236727237701,-0.013714875094592571,-0.15166255831718445,-0.009943000040948391,-0.9880170226097107,-0.10793950408697128
10.12,-0.12689588963985443,0.021437814459204674,-0.11970555782318115,-0.018727000802755356,-0.9953369498252869,-0.11553400754928589
10.14,-0.19080986082553864,0.048068638890981674,-0.08561810106039047,-0.02458300068974495,-0.995824933052063,-0.12065799534320831
10.16,-0.27176758646965027,0.06937330216169357,-0.0504654161632061,-0.017994999885559082,-1.0009490251541138,-0.1340779960155487
10.18,-0.35911667346954346,0.10239552706480026,-0.03555215150117874,0.004483500029891729,-1.0053410530090332,-0.13383398950099945
10.2,-0.4390091598033905,0.11504516750574112,-0.03342168778181076,0.013023500330746174,-1.0361154079437256,-0.12456199526786804
10.22,-0.5295539498329163,0.08002562820911407,-0.06324820965528488,0.029401998966932297,-1.0412700176239014,-0.123586006462574
10.24,-0.5945332050323486,0.067242830991745,-0.09946613013744354,0.04672599956393242,-1.016351580619812,-0.10989149659872055
10.26,-0.5892069935798645,0.07150376588106155,-0.12183602899312973,0.006679500453174114,-0.9650505185127258,-0.10818350315093994
10.28,-0.5316844582557678,0.09493889659643173,-0.08348763734102249,-0.04169349744915962,-0.9222895503044128,-0.12334199994802475
10.3,-0.4592485725879669,0.08428656309843063,-0.012117025442421436,-0.08665049821138382,-0.8702564835548401,-0.1702509969472885
10.32,-0.3878779709339142,0.031024912372231483,0.05925358831882477,-0.10324250161647797,-0.8394820690155029,-0.16704849898815155
10.34,-0.19720126688480377,0.05659050494432449,0.2147776037454605,-0.10324250161647797,-0.8394820690155029,-0.16704849898815155
10.36,-0.0991998240351677,0.1288931965827942,0.29240646958351135,-0.17750999331474304,-0.8900509476661682,-0.14606450498104095
10.38,-0.028894444927573204,0.18428531289100647,0.2977326214313507,-0.19681650400161743,-0.965538501739502,-0.16826850175857544
10.4,-0.025698747485876083,0.19813334941864014,0.23062294721603394,-0.14405149221420288,-1.105991005897522,-0.1638765037059784
10.42,-0.050199106335639954,0.1704372763633728,0.17642922699451447,-0.047305501997470856,-1.1504600048065186,-0.13017401099205017
10.44,-0.050199106335639954,0.10332760214805603,0.09014534205198288,0.04038200154900551,-0.9897249937057495,-0.10940349847078323
10.46,-0.051264338195323944,0.041677240282297134,0.012383334338665009,0.016927499324083328,-0.9161894917488098,-0.1424044966697693
10.48,-0.067242830991745,0.017176883295178413,0.013448567129671574,-0.01823900081217289,-0.8619604706764221,-0.20834550261497498
10.5,-0.07576470077037811,-0.0009320789249613881,0.04220985993742943,-0.049989499151706696,-0.8517125248908997,-0.2515944838523865
10.52,-0.04913387447595596,-0.012649642303586006,0.09653674066066742,-0.07076000422239304,-0.8854149580001831,-0.2659904956817627
10.54,-0.019307348877191544,0.037416309118270874,0.1093195378780365,-0.052429500967264175,-0.9430599808692932,-0.2281399965286255
10.56,-0.012915950268507004,0.07469946891069412,0.10612384229898453,-0.04803749918937683,-0.9679784774780273,-0.20907750725746155
10.58,-0.031024912372231483,0.0768299326300621,0.09121058136224747,-0.04584150016307831,-0.9731025695800781,-0.20200151205062866
10.6,-0.033155377954244614,0.060851436108350754,0.07310161739587784,-0.04584150016307831,-0.9645625352859497,-0.19931749999523163
10.62,0.002929390873759985,0.03848154470324516,0.06031882017850876,-0.04559750109910965,-0.9569680094718933,-0.19391900300979614
10.64,0.04660394415259361,0.016111649572849274,0.06031882017850876,-0.05953599885106087,-0.9628545045852661,-0.19172300398349762
10.66,0.06045197322964668,-0.005193010903894901,0.05712312087416649,-0.07076000422239304,-0.9672464728355408,-0.19196699559688568
10.68,0.06258244067430496,-0.011584409512579441,0.05818835273385048,-0.07368800044059753,-0.9755424857139587,-0.20492950081825256
10.7,0.04553871229290962,-0.029693370684981346,0.04966649040579796,-0.07466399669647217,-0.9694425463676453,-0.2185935080051422
10.72,0.025299284607172012,-0.043541401624679565,0.04860125854611397,-0.05291750282049179,-0.9523320198059082,-0.23301999270915985
10.74,0.019973119720816612,-0.04673709720373154,0.04327509179711342,-0.04608549922704697,-0.9384239912033081,-0.22176551818847656
10.76,0.028494983911514282,-0.047802332788705826,0.0454055592417717,-0.047305501997470856,-0.9374480247497559,-0.21761751174926758
10.78,0.04660394415259361,-0.040345702320337296,0.04647079110145569,-0.06612399965524673,-0.9501360654830933,-0.2000495046377182
10.8,0.06471290439367294,-0.038215234875679016,0.04220985993742943,-0.07978799939155579,-0.9576999545097351,-0.19196699559688568
10.82,0.07003907114267349,-0.042476166039705276,0.04434032365679741,-0.09128650277853012,-0.9755424857139587,-0.18977099657058716
10.84,0.06258244067430496,-0.048867564648389816,0.04114462435245514,-0.08957850188016891,-0.9799345135688782,-0.19172300398349762
10.86,0.05725627392530441,-0.057389430701732635,0.03262276202440262,-0.08225850015878677,-0.9801784753799438,-0.19687749445438385
10.88,0.05406057462096214,-0.07762885838747025,0.01664426550269127,-0.07588399946689606,-0.9782265424728394,-0.19785350561141968
10.9,0.04979964345693588,-0.0925421193242073,0.007057168986648321,-0.07441999763250351,-0.9662705063819885,-0.19562700390815735
10.92,0.04447348043322563,-0.09680305421352386,0.009187635034322739,-0.08076400309801102,-0.9581879377365112,-0.19465100765228271
10.94,0.0370168462395668,-0.08721595257520676,0.015579032711684704,-0.09128650277853012,-0.9657825231552124,-0.19196699559688568
10.96,0.024234050884842873,-0.07549838721752167,0.02942706272006035,-0.10690250247716904,-0.9813984632492065,-0.1895269900560379
10.98,0.014646953903138638,-0.06591129302978516,0.03794892504811287,-0.10739050805568695,-0.9916769862174988,-0.17415499687194824
11,0.013581721112132072,-0.058454662561416626,0.03581846132874489,-0.10739050805568695,-0.9931409955024719,-0.16951899230480194
11.02,0.018907885998487473,-0.057389430701732635,0.02836182899773121,-0.10937299579381943,-0.9950929880142212,-0.16802451014518738
11.04,0.012516488321125507,-0.060585130006074905,0.01664426550269127,-0.11254499852657318,-0.98996901512146,-0.17366699874401093
11.06,0.017842652276158333,-0.06271559745073318,0.0017310036346316338,-0.10937299579381943,-0.978470504283905,-0.17000699043273926
11.08,0.019973119720816612,-0.059519894421100616,0.0017310036346316338,-0.11156899482011795,-0.9672464728355408,-0.16753649711608887
11.1,0.022103585302829742,-0.06271559745073318,-0.006790860556066036,-0.10665849596261978,-0.9596824645996094,-0.1655845046043396
11.12,0.017842652276158333,-0.055258963257074356,-0.006790860556066036,-0.10324250161647797,-0.9494039416313171,-0.17000699043273926
11.14,0.012516488321125507,-0.050998032093048096,-0.011051792651414871,-0.10202250629663467,-0.9450119733810425,-0.16363251209259033
11.16,0.016777420416474342,-0.040345702320337296,-0.0025299284607172012,-0.10543850064277649,-0.9396439790725708,-0.15850849449634552
11.18,0.019973119720816612,-0.038215234875679016,0.0017310036346316338,-0.10986100137233734,-0.9452559351921082,-0.1575324982404709
11.2,0.03275591507554054,-0.026497671380639076,0.009187635034322739,-0.11547300964593887,-0.942084014415741,-0.14801649749279022
11.22,0.04234301298856735,-0.026497671380639076,0.012383334338665009,-0.1147409975528717,-0.9469640254974365,-0.14508849382400513
11.24,0.04447348043322563,-0.024367205798625946,0.015579032711684704,-0.115960992872715,-0.9506240487098694,-0.1470405012369156
11.26,0.04447348043322563,-0.020106272771954536,0.013448567129671574,-0.11425299942493439,-0.9579439759254456,-0.15436048805713654
11.28,0.04340824484825134,-0.019041040912270546,0.015579032711684704,-0.11644899845123291,-0.9713944792747498,-0.1614365130662918
11.3,0.027429750189185143,0.00226362026296556,0.02623136341571808,-0.1252330094575882,-0.9870409369468689,-0.15948450565338135
11.32,0.021038351580500603,0.020372580736875534,0.03262276202440262,-0.1252330094575882,-0.9870409369468689,-0.15948450565338135
11.34,0.018907885998487473,0.036351077258586884,0.02836182899773121,-0.11864499747753143,-0.9828625321388245,-0.14826050400733948
11.36,0.014646953903138638,0.051264338195323944,0.012383334338665009,-0.11864499747753143,-0.9828625321388245,-0.14826050400733948
11.38,0.010386021807789803,0.05978620424866676,0.008122402243316174,-0.11669300496578217,-0.9648065567016602,-0.14728449285030365
11.4,0.00399462366476655,0.066177599132061,0.004926702938973904,-0.11254499852657318,-0.9579439759254456,-0.1475284993648529
11.42,0.002929390873759985,0.06937330216169357,0.010252867825329304,-0.11278900504112244,-0.9516000151634216,-0.14899249374866486
11.44,0.0018641578499227762,0.08641702681779861,0.013448567129671574,-0.10177849978208542,-0.9562360048294067,-0.15289650857448578
11.46,-0.00226362026296556,0.10133028775453568,0.01770949922502041,-0.10543850064277649,-0.964074432849884,-0.15411649644374847
11.48,-0.0033288532868027687,0.12463226169347763,0.02729659713804722,-0.10861050337553024,-0.9731025695800781,-0.16460849344730377
11.5,-0.0011983871227130294,0.15126308798789978,0.03049229457974434,-0.11108099669218063,-0.9921650290489197,-0.15533649921417236
11.52,-0.0033288532868027687,0.1715025156736374,0.02836182899773121,-0.11254499852657318,-1.0121729373931885,-0.15826450288295746
11.54,-0.011850717477500439,0.17469821870326996,0.01770949922502041,-0.10961700230836868,-1.0173275470733643,-0.16656050086021423
11.56,-0.007589785382151604,0.16298064589500427,-0.0003994623839389533,-0.09787449985742569,-0.9933850169181824,-0.1621685028076172
11.58,-0.0011983871227130294,0.1480673849582672,-0.012117025442421436,-0.0773480013012886,-0.9674904942512512,-0.15558050572872162
11.6,-0.0011983871227130294,0.12356702983379364,-0.03022598661482334,-0.06002400070428848,-0.9576999545097351,-0.16241249442100525
11.62,-0.017176883295178413,0.11291470378637314,-0.03342168778181076,-0.06148799881339073,-0.9621224999427795,-0.1785469949245453
11.64,-0.034220609813928604,0.10439283400774002,-0.03342168778181076,-0.06685599684715271,-0.968222439289093,-0.18391500413417816
11.66,-0.051264338195323944,0.08641702681779861,-0.02489982172846794,-0.0680759996175766,-0.9716385006904602,-0.1895269900560379
11.68,-0.066177599132061,0.08535179495811462,-0.03022598661482334,-0.057339999824762344,-0.9745665192604065,-0.18464699387550354
11.7,-0.0874822586774826,0.07576470077037811,-0.03661738336086273,-0.06295200437307358,-0.9865529537200928,-0.18855100870132446
11.72,-0.0991998240351677,0.066177599132061,-0.039813082665205,-0.06709999591112137,-0.9921650290489197,-0.1929430067539215
11.74,-0.10559122264385223,0.05659050494432449,-0.04620448127388954,-0.06831999868154526,-0.978470504283905,-0.19343100488185883
11.76,-0.10559122264385223,0.027829213067889214,-0.06005251035094261,-0.06295200437307358,-0.9652945399284363,-0.1929430067539215
11.78,-0.10346075892448425,0.013981183059513569,-0.06963960826396942,-0.057096000760793686,-0.9557480216026306,-0.20395350456237793
11.8,-0.09280842542648315,0.006524552125483751,-0.08029194176197052,-0.04950150102376938,-0.9594384431838989,-0.20517349243164062
11.82,-0.08428656309843063,-0.011584409512579441,-0.08348763734102249,-0.05514400079846382,-0.9638304710388184,-0.2059054970741272
11.84,-0.0768299326300621,-0.025432437658309937,-0.0824224054813385,-0.054655998945236206,-0.96236652135849,-0.20346549153327942
11.86,-0.07256899774074554,-0.03608476743102074,-0.07709623873233795,-0.05047749727964401,-0.966514527797699,-0.20370949804782867
11.88,-0.06937330216169357,-0.044606633484363556,-0.07283531129360199,-0.051209498196840286,-0.9594384431838989,-0.19760949909687042
11.9,-0.04593817517161369,-0.060585130006074905,-0.06750914454460144,-0.051209498196840286,-0.9594384431838989,-0.19760949909687042
11.92,-0.03528584539890289,-0.06484606117010117,-0.06431344151496887,-0.057583998888731,-0.9604145288467407,-0.1924550086259842
11.94,-0.028894444927573204,-0.0829550251364708,-0.05792204663157463,-0.06173199787735939,-0.9630984663963318,-0.19980549812316895
11.96,-0.029959678649902344,-0.0936073511838913,-0.06324820965528488,-0.053893499076366425,-0.9520879983901978,-0.20346549153327942
11.98,-0.025698747485876083,-0.08721595257520676,-0.06750914454460144,-0.057339999824762344,-0.9552600383758545,-0.2029774934053421
12,-0.013981183059513569,-0.08721595257520676,-0.06218297779560089,-0.057339999824762344,-0.9552600383758545,-0.2029774934053421
12.02,-0.011850717477500439,-0.08402025699615479,-0.05792204663157463,-0.05438150092959404,-0.9574559926986694,-0.198341503739357
12.04,-0.009720250964164734,-0.0829550251364708,-0.05579157918691635,-0.055876001715660095,-0.9606585502624512,-0.21005350351333618
12.06,-0.011850717477500439,-0.07869409024715424,-0.04300878196954727,-0.058316003531217575,-0.9591944813728333,-0.20444151759147644
12.08,-0.004394086077809334,-0.07017222791910172,-0.03555215150117874,-0.058316003531217575,-0.9591944813728333,-0.20444151759147644
12.1,0.0018641578499227762,-0.06271559745073318,-0.02916075475513935,-0.0634400025010109,-0.9587064981460571,-0.20248949527740479
12.12,0.0050598569214344025,-0.05632419511675835,-0.02703028731048107,-0.055876001715660095,-0.964074432849884,-0.20346549153327942
12.14,0.0061250897124409676,-0.048867564648389816,-0.02489982172846794,-0.05660799890756607,-0.9589504599571228,-0.198341503739357
12.16,0.0050598569214344025,-0.035019535571336746,-0.02489982172846794,-0.056363996118307114,-0.9581879377365112,-0.20346549153327942
12.18,0.002929390873759985,-0.029693370684981346,-0.02703028731048107,-0.05953599885106087,-0.9684664607048035,-0.20322149991989136
12.2,-0.006524552125483751,-0.023301972076296806,-0.02809552103281021,-0.04657349735498428,-0.968222439289093,-0.20614950358867645
12.22,-0.011850717477500439,-0.017975807189941406,-0.02703028731048107,-0.048525501042604446,-0.9689545631408691,-0.20663751661777496
12.24,-0.018242115154862404,-0.006258244160562754,-0.0238345880061388,-0.05218550190329552,-0.9635864496231079,-0.20688150823116302
12.26,-0.022503048181533813,0.0011983871227130294,-0.02170412242412567,-0.05514400079846382,-0.9657825231552124,-0.2088335156440735
12.28,-0.028894444927573204,0.008655018173158169,-0.0238345880061388,-0.04950150102376938,-0.9569680094718933,-0.2105415016412735
12.3,-0.029959678649902344,0.017176883295178413,-0.0185084231197834,-0.04803749918937683,-0.9581879377365112,-0.21200551092624664
12.32,-0.036351077258586884,0.022503048181533813,-0.015312724746763706,-0.04657349735498428,-0.9616345167160034,-0.21249349415302277
12.34,-0.029959678649902344,0.022503048181533813,-0.009986559860408306,-0.05514400079846382,-0.9657825231552124,-0.21615348756313324
12.36,-0.022503048181533813,0.028894444927573204,-0.00359516148455441,-0.05438150092959404,-0.9660264849662781,-0.21249349415302277
12.38,-0.021437814459204674,0.027829213067889214,-0.004660394508391619,-0.048769500106573105,-0.9687105417251587,-0.2117614895105362
12.4,-0.023568280041217804,0.029959678649902344,-0.006790860556066036,-0.044865500181913376,-0.9591944813728333,-0.2105415016412735
12.42,-0.027829213067889214,0.03209014609456062,-0.008921326138079166,-0.04535349830985069,-0.957211971282959,-0.21273750066757202
12.44,-0.031024912372231483,0.024633513763546944,-0.011051792651414871,-0.05194149911403656,-0.9594384431838989,-0.20956549048423767
12.46,-0.034220609813928604,0.024633513763546944,-0.011051792651414871,-0.04462150111794472,-0.959926426410675,-0.21200551092624664
12.48,-0.037416309118270874,0.028894444927573204,-0.004660394508391619,-0.04803749918937683,-0.9579439759254456,-0.21395748853683472
12.5,-0.043807707726955414,0.024633513763546944,-0.005725627299398184,-0.04340149834752083,-0.9567239880561829,-0.21761751174926758
12.52,-0.04593817517161369,0.022503048181533813,-0.005725627299398184,-0.04559750109910965,-0.9547720551490784,-0.2122495025396347
12.54,-0.03209014609456062,0.018242115154862404,-0.00359516148455441,-0.04462150111794472,-0.9520879983901978,-0.2093214988708496
12.56,-0.026763979345560074,0.012915950268507004,-0.006790860556066036,-0.043889500200748444,-0.9511120319366455,-0.21298149228096008
12.58,-0.021437814459204674,0.010785484686493874,-0.005725627299398184,-0.043889500200748444,-0.9552600383758545,-0.2088335156440735
12.6,-0.011850717477500439,0.00226362026296556,-0.007856093347072601,-0.0470614992082119,-0.9596824645996094,-0.21078549325466156
12.62,-0.010785484686493874,-0.006258244160562754,-0.012117025442421436,-0.0470614992082119,-0.9596824645996094,-0.21078549325466156
12.64,-0.011850717477500439,-0.013714875094592571,-0.014247491955757141,-0.048525501042604446,-0.9557480216026306,-0.20956549048423767
12.66,-0.019307348877191544,-0.021171506494283676,-0.0185084231197834,-0.043889500200748444,-0.9584320187568665,-0.21078549325466156
12.68,-0.020372580736875534,-0.025432437658309937,-0.02276935614645481,-0.03559349849820137,-0.9564799666404724,-0.21542151272296906
12.7,-0.027829213067889214,-0.038215234875679016,-0.02703028731048107,-0.04218149930238724,-0.9574559926986694,-0.2151774913072586
12.72,-0.03528584539890289,-0.040345702320337296,-0.03342168778181076,-0.034861501306295395,-0.9618784785270691,-0.21664150059223175
12.74,-0.033155377954244614,-0.04673709720373154,-0.03342168778181076,-0.042425502091646194,-0.9604145288467407,-0.2093214988708496
12.76,-0.03848154470324516,-0.050998032093048096,-0.03129122033715248,-0.043645501136779785,-0.9652945399284363,-0.21566550433635712
12.78,-0.033155377954244614,-0.054193731397390366,-0.02809552103281021,-0.04462150111794472,-0.9618784785270691,-0.21883749961853027
12.8,-0.020372580736875534,-0.057389430701732635,-0.03342168778181076,-0.04315749928355217,-0.9589504599571228,-0.22078950703144073
12.82,-0.020372580736875534,-0.061650361865758896,-0.03342168778181076,-0.04340149834752083,-0.961390495300293,-0.22225350141525269
12.84,-0.019307348877191544,-0.058454662561416626,-0.03342168778181076,-0.043889500200748444,-0.9518439769744873,-0.21664150059223175
12.86,-0.025698747485876083,-0.054193731397390366,-0.03022598661482334,-0.051209498196840286,-0.9591944813728333,-0.2215214967727661
12.88,-0.026763979345560074,-0.05312849581241608,-0.02809552103281021,-0.04632950201630592,-0.9667584896087646,-0.21542151272296906
12.9,-0.029959678649902344,-0.048867564648389816,-0.02596505545079708,-0.047549501061439514,-0.9609025120735168,-0.2185935080051422
12.92,-0.026763979345560074,-0.045671865344047546,-0.02276935614645481,-0.04559750109910965,-0.9576999545097351,-0.21200551092624664
12.94,-0.015046416781842709,-0.048867564648389816,-0.02276935614645481,-0.04266950115561485,-0.959926426410675,-0.21712949872016907
12.96,-0.015046416781842709,-0.047802332788705826,-0.0238345880061388,-0.04340149834752083,-0.9633424878120422,-0.21761751174926758
12.98,-0.012915950268507004,-0.05312849581241608,-0.01744319126009941,-0.04462150111794472,-0.9626104831695557,-0.21737349033355713
13,-0.012915950268507004,-0.059519894421100616,-0.02063889056444168,-0.04315749928355217,-0.9609025120735168,-0.21786150336265564
13.02,-0.011850717477500439,-0.058454662561416626,-0.01744319126009941,-0.04315749928355217,-0.9609025120735168,-0.21786150336265564
13.04,-0.010785484686493874,-0.059519894421100616,-0.015312724746763706,-0.04266950115561485,-0.9579439759254456,-0.22054548561573029
13.06,-0.005459319334477186,-0.06378082931041718,-0.014247491955757141,-0.03754550218582153,-0.9579439759254456,-0.2134695053100586
13.08,-0.004394086077809334,-0.059519894421100616,-0.012117025442421436,-0.04632950201630592,-0.959926426410675,-0.21761751174926758
13.1,-0.0011983871227130294,-0.05632419511675835,-0.011051792651414871,-0.04193750023841858,-0.9564799666404724,-0.22030149400234222
13.12,-0.0001331541279796511,-0.055258963257074356,-0.012117025442421436,-0.04193750023841858,-0.9564799666404724,-0.22030149400234222
13.14,0.0061250897124409676,-0.05312849581241608,-0.014247491955757141,-0.04144950211048126,-0.9618784785270691,-0.2193254977464676
13.16,0.00399462366476655,-0.054193731397390366,-0.015312724746763706,-0.03900950029492378,-0.960170567035675,-0.22127750515937805
13.18,0.8773525357246399,-0.1255643367767334,-0.0003994623839389533,0.17937050759792328,-0.04071750119328499,0.9820085167884827
13.2,1.128747582435608,-0.44300377368927,0.40851685404777527,0.05895650014281273,-0.08835849910974503,0.9854245185852051
13.22,1.070159673690796,-0.4749607741832733,0.3179720640182495,0.05895650014281273,-0.08835849910974503,0.9854245185852051
13.24,0.8560478687286377,-0.6985265612602234,0.25831902027130127,0.23262351751327515,0.03818599879741669,0.7963550090789795
13.26,0.42795735597610474,-0.5419372916221619,0.12316756695508957,0.19843299686908722,0.04892200231552124,0.8320095539093018
13.28,0.33208638429641724,-0.30984964966773987,0.11571093648672104,0.20526500046253204,0.030865998938679695,0.8669319748878479
13.3,0.4865451753139496,0.9053149223327637,-0.21770699322223663,0.5091364979743958,0.1559159904718399,1.0740879774093628
13.32,0.33954301476478577,0.9670984148979187,-0.7192986011505127,0.43904751539230347,0.20062899589538574,0.9817644953727722
13.34,0.3555215299129486,0.6721620559692383,-0.5861444473266602,0.10583500564098358,0.09314699470996857,1.0029925107955933
13.36,0.616370439529419,1.37494957447052,-0.4210333526134491,0.1046149954199791,0.0013114999746903777,1.018394947052002
13.38,0.14886631071567535,0.40798425674438477,-0.2741643488407135,0.2323794960975647,0.013755499385297298,0.839817464351654
13.4,-0.35911667346954346,0.6774882078170776,0.11358047276735306,0.0013114999746903777,0.1197734922170639,0.8886784911155701
13.42,-1.2834726572036743,1.5603001117706299,0.329689621925354,0.17180649936199188,0.196724995970726,0.6937530040740967
13.44,-1.7734798192977905,2.060826539993286,0.13381989300251007,0.17180649936199188,0.196724995970726,0.6937530040740967
13.46,-1.9256750345230103,2.309025764465332,0.2062557488679886,0.07823249697685242,0.1600639969110489,0.9248515367507935
13.48,-1.4816060066223145,1.2824074029922485,0.33395054936408997,0.05160599946975708,-0.11202649772167206,1.3142144680023193
13.5,-0.9565792679786682,0.6529878377914429,0.20199480652809143,0.11708950251340866,-0.12498899549245834,1.4466149806976318
13.52,0.4439358711242676,-0.08721595257520676,-0.13142313063144684,-0.001158999977633357,-0.08003199845552444,1.390921950340271
13.54,1.2766817808151245,-0.24380521476268768,-0.005725627299398184,-0.0634400025010109,-0.020191000774502754,1.1696140766143799
13.56,1.4023792743682861,-0.4131772518157959,0.1934729516506195,-0.0634400025010109,-0.020191000774502754,1.1696140766143799
13.58,0.9551145434379578,-0.18734785914421082,0.2062557488679886,-0.02433899976313114,-0.002104500075802207,0.9561139345169067
13.6,0.6547188758850098,-0.061650361865758896,0.18601632118225098,-0.013602999970316887,0.02622999995946884,0.8920944929122925
13.62,-0.007589785382151604,0.41011470556259155,0.11251524090766907,-0.01823900081217289,0.03940599784255028,0.8759905099868774
13.64,-0.23448441922664642,0.6487269401550293,0.0667102187871933,-0.0006710000452585518,0.03379400074481964,0.9177449941635132
13.66,-0.2248973250389099,0.6050523519515991,0.03581846132874489,-0.0365694984793663,0.035989999771118164,0.9934765100479126
13.68,-0.15565717220306396,0.43248459696769714,0.02090519852936268,-0.07076000422239304,0.03647800162434578,1.0242509841918945
13.7,0.07856093347072601,0.07469946891069412,-0.007856093347072601,-0.07661599665880203,0.04696999862790108,1.05673348903656
13.72,0.1659100502729416,-0.1777607649564743,0.02623136341571808,-0.0785680040717125,0.0550525039434433,1.0367255210876465
13.74,0.15738818049430847,-0.12876003980636597,0.01770949922502041,-0.05291750282049179,0.044773999601602554,1.0147349834442139
13.76,0.10199606418609619,0.07363422960042953,-0.04300878196954727,-0.0394974984228611,0.043554000556468964,1.0088790655136108
13.78,0.08388710021972656,0.08641702681779861,-0.0611177459359169,-0.06026799976825714,0.0550525039434433,0.9851804971694946
