timestamp,gyro_x,gyro_y,gyro_z,acc_x,acc_y,acc_z
0,0.06151720881462097,0.060851436108350754,0.02090519852936268,0,0,0
0.02,-0.027829213067889214,0.14380645751953125,0.007057168986648321,0,0,0
0.04,-0.04593817517161369,0.20558997988700867,0.0038614696823060513,0.05993250384926796,0.0789949968457222,1.0318455696105957
0.06,-0.033155377954244614,0.2460688352584839,0.06777545064687729,0.052094001322984695,0.06408049911260605,1.0579534769058228
0.08,-0.0033288532868027687,0.21624229848384857,0.12210233509540558,0.0538019984960556,0.06749650090932846,1.089734435081482
0.1,0.016777420416474342,0.18322007358074188,0.15725502371788025,0.06017650291323662,0.07750049978494644,1.1009584665298462
0.12,-0.050199106335639954,0.1800243854522705,0.15725502371788025,0.0806724950671196,0.06969249993562698,1.1009584665298462
0.14,-0.19933173060417175,0.3547225892543793,0.34673336148262024,0.0806724950671196,0.06969249993562698,1.1009584665298462
0.16,-0.26111525297164917,0.7636389136314392,0.6023892760276794,0.05480850115418434,-0.0365694984793663,1.1827900409698486
0.18,-0.4091826379299164,1.1535142660140991,0.6247591972351074,0.06408049911260605,-0.04437749832868576,1.1378329992294312
0.2,-0.30692026019096375,1.3419272899627686,0.6833469867706299,0.10559099912643433,0.0005794999888166785,1.2729175090789795
0.22,0.19147562980651855,1.337666392326355,0.6929340958595276,0.1307535022497177,-0.061243996024131775,1.4226725101470947
0.24,0.2276935577392578,1.1034482717514038,0.760043740272522,0.04696999862790108,-0.05047749727964401,1.1166049242019653
0.26,-0.034220609813928604,0.7604432106018066,0.8239577412605286,0.09241500496864319,-0.026534998789429665,1.053073525428772
0.28,-0.08002562820911407,0.2439383566379547,0.7419347763061523,0.12026149779558182,-0.05096549913287163,1.1266090869903564
0.3,0.025299284607172012,-0.12876003980636597,0.7280867695808411,0.05627249926328659,-0.06441599875688553,1.1341729164123535
0.32,-0.11624355614185333,-0.12982527911663055,0.8408682942390442,0.008875500410795212,-0.09470249712467194,0.9734379649162292
0.34,-0.5902722477912903,-0.41743817925453186,1.0294145345687866,0.008143500424921513,-0.13523699343204498,0.8261534571647644
0.36,-0.9842753410339355,0.08428656309843063,1.2232869863510132,-0.14112350344657898,-0.2522655129432678,0.8303014636039734
0.38,-1.1078423261642456,0.051264338195323944,1.4436570405960083,-0.2021844983100891,-0.3050305247306824,0.7621645331382751
0.4,-1.677608847618103,-0.16497796773910522,2.2179481983184814,-0.2021844983100891,-0.3050305247306824,0.7621645331382751
0.42,-2.3762686252593994,0.1065233051776886,2.3947770595550537,-0.2302750051021576,-0.36169949173927307,0.7316340208053589
0.44,-2.8906428813934326,-0.3183715343475342,2.4693431854248047,-0.23564299941062927,-0.35312899947166443,0.6729825139045715
0.46,-3.315537691116333,-0.3599156141281128,2.680126190185547,-0.24223099648952484,-0.42178449034690857,0.6854569911956787
0.48,-3.7553458213806152,0.09493889659643173,2.9304561614990234,-0.3526409864425659,-0.5197200179100037,0.8141974806785583
0.5,-4.299546718597412,0.09600412845611572,3.015674591064453,-0.3240624964237213,-0.6240299940109253,0.6512665152549744
0.52,-4.7192487716674805,0.38348388671875,3.1818511486053467,-0.4432869851589203,-0.5651649832725525,0.8425320386886597
0.54,-4.303807735443115,0.6679010987281799,3.3702640533447266,-0.5583330392837524,-0.43520447611808777,1.2253069877624512
0.56,-3.395430326461792,0.6870753169059753,3.527918577194214,-0.6416285037994385,-0.29816800355911255,1.6669470071792603
0.58,-2.243114471435547,1.307973027229309,3.6163330078125,-0.629428505897522,-0.14673548936843872,2.147169351577759
0.6,-0.5029231309890747,2.333526134490967,3.531114339828491,-0.4520709812641144,-0.0040870001539587975,2.4508275985717773
0.62,1.218093991279602,2.8883793354034424,3.124328374862671,0.03501399978995323,0.13246150314807892,2.4344489574432373
0.64,3.2235283851623535,2.69344162940979,2.02740478515625,0.33717748522758484,0.13050949573516846,1.9419959783554077
0.66,3.3907699584960938,2.8958358764648438,1.0869371891021729,0.5604375004768372,0.05724850296974182,1.2245750427246094
0.68,2.836981773376465,2.9022274017333984,0.2753627300262451,0.5795000195503235,-0.0546254999935627,0.38426950573921204
0.7,2.3034331798553467,1.9278054237365723,-1.0824098587036133,0.3542574942111969,-0.1327970027923584,0.40699198842048645
0.72,1.4748151302337646,0.360048770904541,-1.1314105987548828,0.14591200649738312,-0.25787749886512756,0.11410050094127655
0.74,1.1148995161056519,-0.2427399754524231,-0.7597774267196655,-0.5363425016403198,-0.6281780004501343,0.03324500098824501
0.76,0.6792191863059998,0.041677240282297134,-0.5062519907951355,-0.7241920232772827,-0.48138147592544556,0.22914649546146393
0.78,0.501458466053009,0.30572187900543213,-0.36257869005203247,-0.89102703332901,-0.410286009311676,0.49150750041007996
0.8,0.5845466256141663,0.30465665459632874,-0.3975982367992401,-0.9459880590438843,-0.2559255063533783,0.7550579905509949
0.82,1.013702392578125,0.5006595253944397,-0.012117025442421436,-1.083512544631958,-0.4786975085735321,1.0210790634155273
0.84,1.218093991279602,0.8659012913703918,0.29134124517440796,-1.1448174715042114,-0.6384564638137817,1.0601799488067627
0.86,1.3310086727142334,0.3525921404361725,0.004926702938973904,-0.49239203333854675,-0.385886013507843,0.8249334692955017
0.88,1.272420883178711,0.2663082480430603,-0.3189041316509247,-0.5195064544677734,-0.5243865251541138,0.7323660254478455
0.9,1.3906617164611816,0.2343512624502182,0.5619103908538818,-1.2918884754180908,-0.6037474870681763,0.896028995513916
0.92,1.13087797164917,-0.5005263686180115,0.000665770610794425,-0.4134884774684906,-0.6379684805870056,0.8200535178184509
0.94,1.1223561763763428,-0.9957265853881836,-0.8694964647293091,-0.95306396484375,-0.0966544970870018,0.7379779815673828
0.96,0.1541924774646759,0.14593692123889923,-0.7832126021385193,-0.8810229897499084,-0.00234850007109344,0.640500009059906
0.98,-0.1620485782623291,-0.06484606117010117,-0.9909330010414124,-0.7706130146980286,-0.1701900064945221,0.7223315238952637
1,-0.8660344481468201,-0.2416747361421585,-1.8119614124298096,-0.2949959933757782,-0.3030479848384857,0.6229320168495178
1.02,-1.1291470527648926,-0.6974613070487976,-2.5532302856445312,-0.9152135252952576,-0.32381850481033325,1.0296189785003662
1.04,-0.5721632838249207,-0.955247700214386,-1.4680242538452148,-0.6282085180282593,0.0010674999793991446,0.7958669662475586
1.06,0.3342168629169464,-1.0702928304672241,-0.8513875007629395,-0.8006554841995239,-0.5270705223083496,0.7457860112190247
1.08,0.13927921652793884,-0.041410934180021286,-0.2965342402458191,-0.44182300567626953,-0.4537789821624756,0.6610265374183655
1.1,-0.2366148829460144,1.7456506490707397,-0.2975994646549225,-0.4403589963912964,-0.34239301085472107,0.6365959644317627
1.12,-0.15565717220306396,2.383592128753662,-0.4199681282043457,-0.6167100071907043,-0.4598790109157562,0.7215994596481323
1.14,-0.5093145370483398,3.1227304935455322,-0.2741643488407135,-0.7637504935264587,-0.5656530261039734,0.6317160129547119
1.16,-0.47629231214523315,3.2291207313537598,0.04966649040579796,-0.7637504935264587,-0.5656530261039734,0.6317160129547119
1.18,-0.705184280872345,2.7477686405181885,0.5512580871582031,-0.9252175092697144,-0.6611790060997009,0.15073099732398987
1.2,-1.103581428527832,1.9372594356536865,1.177482008934021,-0.9252175092697144,-0.6611790060997009,0.15073099732398987
1.22,-1.6605651378631592,1.8543044328689575,1.6449861526489258,-1.0129355192184448,-0.5763890147209167,0.00783849973231554
1.24,-1.6062382459640503,0.8200962543487549,1.7174218893051147,-0.9818865656852722,-0.18263401091098785,0.2269504964351654
1.26,-1.4922583103179932,0.20985090732574463,1.3745501041412354,-0.8475645184516907,0.086558997631073,0.5774869918823242
1.28,-0.9981233477592468,0.45485448837280273,0.750456690788269,-0.8780950307846069,0.4673819839954376,1.174981951713562
1.3,-0.2579195499420166,1.0246210098266602,0.22103585302829742,-0.8780950307846069,0.4673819839954376,1.174981951713562
1.32,0.8102428913116455,0.6647053956985474,0.28175413608551025,-1.0700924396514893,0.14225199818611145,0.944859504699707
1.34,1.325682520866394,0.27163442969322205,0.29134124517440796,-1.0700924396514893,0.14225199818611145,0.944859504699707
1.36,1.7102316617965698,0.23754696547985077,-0.1143793985247612,-0.4752814769744873,0.019123500213027,0.575534999370575
1.38,1.7624280452728271,0.10545806586742401,-0.7001243829727173,-0.44767898321151733,-0.14356349408626556,0.4971195161342621
1.4,2.1276698112487793,0.6029219031333923,-2.005833864212036,0.16372400522232056,0.4126649796962738,0.912132978439331
1.42,2.513150930404663,1.1407314538955688,-3.1986284255981445,-0.2051125019788742,-0.06831999868154526,0.8508280515670776
1.44,2.1266045570373535,1.568821907043457,-3.382913827896118,-0.844118058681488,-0.6687430143356323,0.12508049607276917
1.46,0.6962629556655884,0.011850717477500439,-1.5798736810684204,-2.134877920150757,-1.2901804447174072,-0.8998720049858093
1.48,-0.600924551486969,-1.7092995643615723,0.14553746581077576,-2.003697633743286,-0.9352520108222961,-0.8285629749298096
1.5,-0.7541849613189697,-2.6400468349456787,0.10825430601835251,-1.1177029609680176,-0.38390350341796875,-0.13261400163173676
1.52,-0.7712287306785583,-1.879603624343872,-0.24753352999687195,-0.8079754710197449,-0.501908004283905,0.6136294603347778
1.54,-0.41237834095954895,0.2972000241279602,-0.4551208019256592,-0.8079754710197449,-0.501908004283905,0.6136294603347778
1.56,0.12117026001214981,1.088534951210022,-0.8045172691345215,-0.4571950137615204,-0.6736230254173279,1.2756015062332153
1.58,0.14034445583820343,0.1480673849582672,-0.7150376439094543,-0.43008050322532654,-0.8636685013771057,0.48269301652908325
1.6,0.07749570161104202,-0.4994611442089081,-1.0323439836502075,-0.5150839686393738,-0.5998435020446777,0.4550905227661133
1.62,-0.24407151341438293,-0.14367330074310303,-0.7299509048461914,-0.9953369498252869,-0.5490304827690125,0.4030574858188629
1.64,-0.43261775374412537,0.4388760030269623,0.08481918275356293,-1.1377414464950562,-0.5898394584655762,0.30024200677871704
1.66,-0.46777045726776123,1.2717550992965698,0.6556509137153625,-0.5908154845237732,-0.7014694809913635,0.22890250384807587
1.68,-0.5647066831588745,1.7083674669265747,1.0294145345687866,-0.6921975016593933,-0.5966715216636658,0.3337005078792572
1.7,-0.8149032592773438,2.141784191131592,1.4372656345367432,-0.6921975016593933,-0.5966715216636658,0.3337005078792572
1.72,-1.0066452026367188,2.300503969192505,2.2094264030456543,-0.7014694809913635,-0.7134560346603394,0.22597448527812958
1.74,-1.4645622968673706,2.76800799369812,2.3148844242095947,-0.8680605292320251,-0.5395145416259766,0.2117920070886612
1.76,-1.69891357421875,2.295177698135376,2.280797004699707,-0.653828501701355,-0.4852854907512665,0.07109550386667252
1.78,-1.4432575702667236,1.1662969589233398,1.6620298624038696,-0.810415506362915,0.03184200078248978,-0.032970499247312546
1.8,-1.5583027601242065,1.5858656167984009,1.1668295860290527,-1.1172150373458862,0.10485900193452835,0.010766500607132912
1.82,-1.5263457298278809,1.4676247835159302,0.9889357089996338,-1.2549835443496704,0.23774749040603638,-0.08424100279808044
1.84,-1.4219529628753662,0.1906767040491104,0.9303479194641113,-1.0104954242706299,0.2340874969959259,-0.22176551818847656
1.86,-1.1749520301818848,0.5880086421966553,0.6971949934959412,-0.9718824625015259,0.3379094898700714,0.056455500423908234
1.88,-0.836207926273346,0.4687025249004364,0.9399349689483643,-1.1257855892181396,0.17180649936199188,0.3092699944972992
1.9,-0.6519225835800171,-0.18202169239521027,1.088002324104309,-1.030015468597412,0.028181998059153557,0.05474749580025673
1.92,-0.03528584539890289,-1.0596405267715454,0.7632394433021545,-0.7759810090065002,0.0340379998087883,0.1639374941587448
1.94,0.06577813625335693,-0.8423330187797546,0.31584158539772034,-0.6819190382957458,0.060664497315883636,0.11458849906921387
1.96,0.1659100502729416,-0.7837451696395874,0.02090519852936268,-0.9537959694862366,-0.09592249989509583,0.01857450045645237
1.98,0.4940018057823181,-0.7091788649559021,-0.2549901604652405,-0.8363100290298462,-0.00015249999705702066,0.3180539906024933
2,1.2223548889160156,-0.24380521476268768,-0.8844097256660461,-0.8363100290298462,-0.00015249999705702066,0.3180539906024933
2.02,1.9029055833816528,0.1501978635787964,-1.9163541793823242,-0.5839835405349731,0.20624101161956787,0.2269504964351654
2.04,2.32047700881958,1.1002525091171265,-3.410609722137451,-0.9005735516548157,-0.1345050036907196,0.3674030005931854
2.06,3.104222297668457,0.7519213557243347,-3.1815848350524902,-1.0278195142745972,-0.5084959864616394,-0.01073600072413683
2.08,3.1063525676727295,-0.22782671451568604,-3.507412910461426,-0.8011434674263,-0.7527704834938049,-0.440389484167099
2.1,2.6516313552856445,-1.2235532999038696,-3.5415003299713135,-1.016351580619812,-1.1064789295196533,-0.570106029510498
2.12,1.7070358991622925,-1.7315362691879272,-2.942972421646118,-1.1619280576705933,-1.1011109352111816,-0.108427494764328
2.14,1.618621587753296,-2.0042359828948975,-2.9653425216674805,-0.7994354963302612,-0.8468019962310791,0.34565648436546326
2.16,2.2214102745056152,-2.1821298599243164,-3.7279160022735596,-0.21831899881362915,-0.7647265195846558,0.7140355110168457
2.18,2.287454843521118,-0.993596076965332,-3.558544158935547,-0.21831899881362915,-0.7647265195846558,0.7140355110168457
2.2,2.2054319381713867,-0.2097177505493164,-3.720459461212158,-0.32259851694107056,-0.8072435259819031,0.8154175281524658
2.22,2.0893213748931885,0.8243572115898132,-4.216724872589111,-0.4105604887008667,-1.0866844654083252,0.2689794898033142
2.24,1.2969212532043457,0.6551182866096497,-2.2304646968841553,-0.4105604887008667,-1.0866844654083252,0.2689794898033142
2.26,0.8294170498847961,-0.4461994767189026,-0.8055824637413025,-0.5993555188179016,-0.7205320000648499,0.47634902596473694
2.28,0.9625712037086487,0.2439383566379547,-1.282673716545105,-0.7972394824028015,-0.7273640036582947,0.3222324848175049
2.3,0.6206313967704773,0.7105104327201843,-0.854583203792572,-0.4799175262451172,-0.4962959885597229,0.3009739816188812
2.32,0.3651086091995239,0.6455312371253967,-0.5488613247871399,-0.4752814769744873,-0.593499481678009,0.4143120348453522
2.34,0.27669426798820496,0.5549864172935486,-0.24859875440597534,-0.8973709940910339,-0.7080575227737427,0.26040899753570557
2.36,0.13608351349830627,0.1480673849582672,-0.2198374718427658,-0.8973709940910339,-0.7080575227737427,0.26040899753570557
2.38,0.024234050884842873,-0.35458943247795105,-0.2219679355621338,-0.40784600377082825,-0.6535844802856445,0.38548949360847473
2.4,-0.08428656309843063,-0.6143731474876404,-0.11118369549512863,-0.5148400068283081,-0.8165155649185181,0.46488097310066223
2.42,-0.13435252010822296,-0.12130340933799744,0.04647079110145569,-0.41958847641944885,-0.8922470211982727,0.503219485282898
2.44,-0.10239552706480026,-0.14899946749210358,0.011318100616335869,-0.4208085238933563,-0.8497605323791504,0.5222820043563843
2.46,-0.016111649572849274,-0.3183715343475342,0.014513799920678139,-0.4208085238933563,-0.8497605323791504,0.5222820043563843
2.48,-0.2259625494480133,-0.4994611442089081,0.21903854608535767,-0.5160599946975708,-0.7586265206336975,0.4152880012989044
2.5,-0.5402063131332397,-0.7901365756988525,0.49373549222946167,-0.43398451805114746,-0.8004115223884583,0.29560598731040955
2.52,-1.0087757110595703,-1.8689513206481934,1.2520482540130615,-0.33043697476387024,-0.9745665192604065,0.45289450883865356
2.54,-1.2611027956008911,-0.9712262153625488,2.2914493083953857,-0.7552104592323303,-1.2432714700698853,0.4878474771976471
2.56,-0.644465982913971,-1.0660319328308105,2.571605682373047,0.2164890021085739,-0.8731845021247864,0.5918830037117004
2.58,0.0689738392829895,-1.406773328781128,2.2307310104370117,-1.175378441810608,-1.0786324739456177,-0.023180000483989716
2.6,0.1744319051504135,-1.5899934768676758,2.5130178928375244,-0.7180920243263245,-0.8949310183525085,0.5054154992103577
2.62,0.8294170498847961,-2.5324583053588867,1.7685531377792358,-0.7180920243263245,-0.8949310183525085,0.5054154992103577
2.64,0.7559159994125366,-3.2311179637908936,1.079480528831482,-0.7913835048675537,-0.3988180160522461,0.44142648577690125
2.66,0.9689626097679138,-3.6112730503082275,0.6588466167449951,-0.7691490054130554,-0.3458090126514435,0.8198094964027405
2.68,0.9892020225524902,-2.985049247741699,0.4351477026939392,-0.2959720194339752,-0.3467850089073181,0.835181474685669
2.7,0.356586754322052,-1.1129021644592285,-0.14207544922828674,-0.24223099648952484,-0.3438569903373718,0.8007470369338989
2.72,0.21491076052188873,-0.022236740216612816,-0.5893401503562927,-0.24223099648952484,-0.3438569903373718,0.8007470369338989
2.74,0.6216966509819031,0.3920057415962219,-0.6532541513442993,-0.49361199140548706,-0.4706454873085022,0.6666384935379028
2.76,0.5749595165252686,0.4559197425842285,-0.9579107761383057,-0.49361199140548706,-0.4706454873085022,0.6666384935379028
2.78,0.5344806909561157,0.4665720760822296,-1.114366888999939,-0.3275090157985687,-0.4244684875011444,0.5992335081100464
2.8,0.2404763549566269,1.5102341175079346,-1.3018479347229004,-0.44279900193214417,-0.4913855195045471,0.7914749979972839
2.82,0.024234050884842873,2.4272665977478027,-1.5756127834320068,-0.31747451424598694,-0.43056848645210266,0.7736325263977051
2.84,-0.2142449915409088,3.2174031734466553,-2.0644216537475586,-0.48479750752449036,-0.5493049621582031,0.59163898229599
2.86,-0.7318150997161865,2.806356430053711,-2.100639581680298,-0.514352023601532,-0.5515009760856628,0.2772755026817322
2.88,-1.0833419561386108,0.7913349866867065,-2.0409865379333496,-0.8851709961891174,-0.98996901512146,0.6502904891967773
2.9,-0.539141058921814,0.3206351399421692,-1.0344743728637695,-0.8851709961891174,-0.98996901512146,0.6502904891967773
2.92,-0.05659050494432449,0.2556559145450592,-0.5659050345420837,-0.07417599856853485,-0.8722085356712341,0.4602449834346771
2.94,-0.16950520873069763,-0.08188978582620621,-0.5872097015380859,-0.1584475040435791,-0.8333820104598999,0.3732590079307556
2.96,-0.9214265942573547,-1.411034345626831,0.1828206181526184,-0.48138147592544556,-0.7996794581413269,0.3068300187587738
2.98,-1.2047785520553589,-2.94883131980896,0.8154358863830566,-0.43349650502204895,-0.7999235391616821,0.44728249311447144
3,-1.2164961099624634,-3.548424243927002,0.7035863995552063,-0.1042185053229332,-0.8245980143547058,0.5525684952735901
3.02,-0.9150351881980896,-3.0308542251586914,0.22955772280693054,0.11001349240541458,-0.8731845021247864,0.6971690058708191
3.04,0.11690932512283325,-0.6303516626358032,0.2668408751487732,-0.37975549697875977,-0.859276533126831,1.0274230241775513
3.06,0.3768261969089508,0.5816172361373901,0.5395405292510986,-0.4408469796180725,-0.8480220437049866,0.6297640204429626
3.08,0.27669426798820496,1.095991611480713,0.8058487772941589,-0.23442301154136658,-0.8741604685783386,0.3891494870185852
3.1,0.17869283258914948,1.1194267272949219,0.949522078037262,-0.39393800497055054,-0.8243539929389954,0.5889549851417542
3.12,0.23088926076889038,0.7945306897163391,1.3841371536254883,-0.49065351486206055,-0.6706950068473816,0.660782516002655
3.14,-0.008655018173158169,-0.4898740351200104,1.6332684755325317,-0.7481344938278198,-0.6555364727973938,0.6275680065155029
3.16,-0.5828156471252441,-2.4014346599578857,1.9336642026901245,-0.7285839915275574,-0.8224020600318909,0.4331304728984833
3.18,-1.0141018629074097,-3.1512255668640137,1.475614070892334,-0.3230865001678467,-0.8402140140533447,0.46244099736213684
3.2,-0.9075785279273987,-2.910616159439087,0.7685656547546387,-0.10446249693632126,-0.7483785152435303,0.6229320168495178
3.22,-0.4262263774871826,-1.4632307291030884,-0.008921326138079166,0.005703500006347895,-0.6267139911651611,0.7286755442619324
3.24,-0.18867939710617065,-0.7422010898590088,-0.2730991244316101,-0.2168245017528534,-0.5632129907608032,0.6207055449485779
3.26,-0.23341917991638184,-0.4110468029975891,0.03155753016471863,-0.43252047896385193,-0.5578449964523315,0.4963874816894531
3.28,-0.2930722236633301,-0.42702528834342957,0.1828206181526184,-0.37170350551605225,-0.7068374752998352,0.5689470171928406
3.3,0.07110430300235748,0.040612008422613144,-0.015312724746763706,-0.5021519660949707,-0.7068374752998352,0.7604565024375916
3.32,0.3661738634109497,0.8818798065185547,-0.005725627299398184,-0.3514209985733032,-0.7114735245704651,0.4118719696998596
3.34,0.12010502070188522,0.4985290467739105,-0.1559234857559204,-0.24689750373363495,-0.7630184888839722,0.5383859872817993
3.36,-0.06511236727237701,-0.040345702320337296,-0.07816147059202194,-0.36926349997520447,-0.7461825013160706,0.6365959644317627
3.38,0.030625449493527412,-0.3695026934146881,-0.05153064802289009,-0.4596349895000458,-0.6201260089874268,0.8100190162658691
3.4,0.14140968024730682,0.004394086077809334,0.05499265342950821,-0.40028199553489685,-0.6257379651069641,0.6334239840507507
3.42,-0.0011983871227130294,-0.20758728682994843,0.18708154559135437,-0.3905220031738281,-0.6365044713020325,0.5310660004615784
3.44,-0.005459319334477186,-0.2501966059207916,0.5086487531661987,-0.40369799733161926,-0.5942314863204956,0.6136294603347778
3.46,0.28841185569763184,-0.34074142575263977,-0.13781452178955078,0.02668749913573265,-0.33726900815963745,0.6385480165481567
3.48,-0.14500483870506287,0.27163442969322205,-0.7661688327789307,0.02668749913573265,-0.33726900815963745,0.6385480165481567
3.5,-0.3963998258113861,0.24926452338695526,0.02623136341571808,-0.5839835405349731,-0.8558605313301086,0.668102502822876
3.52,-0.3729647099971771,0.48574626445770264,0.1412765234708786,-0.2942639887332916,-0.5739490389823914,0.7211114764213562
3.54,-0.6348788738250732,1.2131673097610474,-0.1463363915681839,-0.5089839696884155,-0.4349604845046997,0.5325300097465515
3.56,-0.5902722477912903,1.400515079498291,-0.23794642090797424,-0.4677174985408783,-0.5595529675483704,0.5107834935188293
3.58,-0.8415340781211853,1.3259488344192505,-0.6969286799430847,-0.3169865012168884,-0.9181415438652039,0.45829299092292786
3.6,-0.8234251141548157,0.5816172361373901,-0.9461932182312012,-0.3169865012168884,-0.9181415438652039,0.45829299092292786
3.62,-1.2440589666366577,1.2994511127471924,-1.3210221529006958,-0.43520447611808777,-0.8055354952812195,0.46536901593208313
3.64,-0.9608401656150818,1.2195587158203125,-1.3561748266220093,-0.4342285096645355,-0.790132999420166,0.3583749830722809
3.66,-1.3047772645950317,0.2972000241279602,-1.6287412643432617,-0.1059264987707138,-0.893222987651825,0.3583749830722809
3.68,-1.1472560167312622,0.10332760214805603,-1.8247442245483398,-0.2063324898481369,-1.0187914371490479,0.57333904504776
3.7,-1.2005176544189453,0.057655736804008484,-1.3945231437683105,-0.37926748394966125,-1.0351394414901733,0.3925654888153076
3.72,-1.2069090604782104,-0.18415215611457825,-1.1346063613891602,-0.3072265088558197,-0.96236652135849,0.3104900121688843
3.74,-0.8607082962989807,-0.3492632806301117,-1.0877361297607422,-0.1718980073928833,-0.8470459580421448,0.3285765051841736
3.76,-0.5892069935798645,-0.824224054813385,-0.9195623993873596,-0.23515498638153076,-0.964318573474884,0.2719075083732605
3.78,-0.067242830991745,-1.6922558546066284,-0.40505486726760864,-0.44865500926971436,-0.9547720551490784,0.3315044939517975
3.8,0.18295377492904663,-0.7262226343154907,-0.5840139985084534,-0.09055449813604355,-1.032455563545227,0.37423500418663025
3.82,0.2830856740474701,-0.4131772518157959,-0.8034520149230957,0.12514150142669678,-1.0642060041427612,0.3463885188102722
3.84,0.31823837757110596,-0.6441996693611145,-0.3806876540184021,-0.06685599684715271,-1.2173770666122437,0.42773202061653137
3.86,0.1765623688697815,-1.0085093975067139,-0.06431344151496887,0.0035075002815574408,-0.9960689544677734,0.3219884932041168
3.88,0.06258244067430496,-0.8391373157501221,-0.05366111174225807,-0.07515200227499008,-0.8243539929389954,0.3109780251979828
3.9,-0.054460037499666214,-0.655917227268219,0.1199718713760376,-0.12913700938224792,-0.7417904734611511,0.2928915023803711
3.92,-0.034220609813928604,-0.6122426986694336,0.16790735721588135,-0.1630835086107254,-0.7561864852905273,0.3815854787826538
3.94,-0.017176883295178413,-0.6079817414283752,0.1956034153699875,-0.1987685114145279,-0.8008995056152344,0.34102049469947815
3.96,0.024234050884842873,-0.6292864084243774,0.222101092338562,-0.22197899222373962,-0.8196874856948853,0.3845134973526001
3.98,-0.24087581038475037,-0.5983946323394775,-0.4018591642379761,0.0701805055141449,-0.7691490054130554,0.29853400588035583
4,-0.2568543255329132,-1.1159647703170776,-0.5978620052337646,-0.155519500374794,-0.7925730347633362,0.3307724893093109
4.02,-0.4688356816768646,-1.2544450759887695,-1.1079754829406738,0.06700850278139114,-0.8856589794158936,0.24259699881076813
4.04,-0.5210320949554443,-0.5121107697486877,-1.4797418117523193,-0.017751000821590424,-0.9989969730377197,0.4690289795398712
4.06,-0.5892069935798645,-0.3087844252586365,-1.5543081760406494,-0.039741501212120056,-0.9985089898109436,0.3774375021457672
4.08,-0.5242277979850769,-0.0030625448562204838,-1.634067416191101,-0.004575000144541264,-0.9880170226097107,0.3510550260543823
4.1,-0.3559209704399109,-1.1830744743347168,-1.5500471591949463,0.1004670038819313,-0.9403759837150574,0.22743850946426392
4.12,-0.6391398310661316,-0.3471328020095825,-1.2943912744522095,0.04550600051879883,-0.9660264849662781,0.32516050338745117
4.14,-0.599859356880188,-0.5270240306854248,-0.9067795872688293,0.11928550899028778,-1.0244035720825195,0.2391505092382431
4.16,-0.5593804717063904,-0.8188979029655457,-0.4423380196094513,0.22920748591423035,-1.0783884525299072,0.2782514989376068
4.18,-0.3963998258113861,-0.5334154367446899,0.007057168986648321,0.19306500256061554,-1.0676219463348389,0.2784954905509949
4.2,-0.13222205638885498,0.256721168756485,0.18814678490161896,0.09021900594234467,-0.940619945526123,0.15317100286483765
4.22,0.33102115988731384,0.6476616859436035,0.36590754985809326,0.15518400073051453,-0.9542840719223022,0.15146300196647644
4.24,0.5770899653434753,1.002251148223877,0.6694989800453186,0.21993550658226013,-1.0705806016921997,0.2025199979543686
4.26,0.7356765866279602,1.3930585384368896,1.0826761722564697,0.18815450370311737,-1.014399528503418,0.2579690217971802
4.28,0.6579145193099976,1.6029094457626343,1.1646991968154907,0.16692650318145752,-0.9230215549468994,0.19105198979377747
4.3,0.44926202297210693,1.6678886413574219,0.9335435628890991,0.07042449712753296,-0.8551285266876221,0.32467252016067505
4.32,-0.10985215753316879,0.957511305809021,0.47456130385398865,-0.03827749937772751,-0.7947689890861511,0.36667099595069885
4.34,-0.23235395550727844,0.803052544593811,0.3840165138244629,-0.001891000079922378,-0.8433859348297119,0.3779255151748657
4.36,-0.14393961429595947,0.09600412845611572,0.43088674545288086,0.027175499126315117,-0.9518439769744873,0.352275013923645
4.38,-0.3037245571613312,0.2652430236339569,0.23168818652629852,-0.10177849978208542,-0.8812669515609741,0.2445489913225174
4.4,-0.17483137547969818,0.0981345921754837,0.06351451575756073,-0.0290055014193058,-0.9469640254974365,0.2772755026817322
4.42,-0.09067796170711517,0.009720250964164734,0.12529803812503815,-0.012382999993860722,-1.0021690130233765,0.3039020001888275
4.44,-0.0874822586774826,0.023568280041217804,0.14340700209140778,-0.009699000045657158,-0.9450119733810425,0.28605949878692627
4.46,-0.11091738939285278,0.058720968663692474,0.16577689349651337,-0.00506300013512373,-0.9476959705352783,0.29609400033950806
4.48,-0.13541774451732635,0.1928071826696396,0.17855969071388245,0.022051500156521797,-0.9626104831695557,0.2777634859085083
4.5,-0.09280842542648315,0.15232832729816437,0.16897258162498474,-0.020191000774502754,-0.9288774728775024,0.2516250014305115
4.52,-0.08215609937906265,0.1374150663614273,0.1316894292831421,-0.03168949857354164,-0.9547720551490784,0.2845955193042755
4.54,-0.0778951644897461,0.1480673849582672,0.04434032365679741,0.05627249926328659,-1.0031449794769287,0.24674499034881592
4.56,-0.04274247586727142,0.12995843589305878,0.08162347972393036,-0.0773480013012886,-0.9433040022850037,0.27459150552749634
4.58,-0.0768299326300621,0.11078423261642456,0.07203638553619385,-0.057583998888731,-0.9430599808692932,0.2743474841117859
4.6,-0.09067796170711517,0.067242830991745,0.06351451575756073,-0.06173199787735939,-0.9430599808692932,0.27581149339675903
4.62,-0.10665645450353622,0.025698747485876083,0.04647079110145569,-0.06026799976825714,-0.9496479630470276,0.28142350912094116
4.64,-0.1205044835805893,0.017176883295178413,0.05925358831882477,-0.05953599885106087,-0.9496479630470276,0.27922749519348145
4.66,-0.1087869256734848,-0.0009320789249613881,0.06031882017850876,-0.06270799785852432,-0.957211971282959,0.27263951301574707
4.68,-0.10346075892448425,-0.023301972076296806,0.06884068250656128,-0.06954000145196915,-0.9569680094718933,0.27507951855659485
4.7,-0.1407439112663269,-0.061650361865758896,0.08588441461324692,-0.06465999782085419,-0.9452559351921082,0.2626050114631653
4.72,-0.20678836107254028,-0.058454662561416626,0.07949301600456238,-0.027297500520944595,-0.9235095381736755,0.2572370171546936
4.74,-0.2557890713214874,-0.038215234875679016,0.06457975506782532,-0.027297500520944595,-0.9235095381736755,0.2572370171546936
4.76,-0.3122464418411255,0.036351077258586884,0.03794892504811287,0.016195500269532204,-0.9559919834136963,0.24113300442695618
4.78,-0.3303554058074951,0.09174319356679916,0.05712312087416649,-0.007991000078618526,-0.9635864496231079,0.2386624962091446
4.8,-0.31863781809806824,0.12037133425474167,0.1295589655637741,-0.06100000441074371,-0.9604145288467407,0.25284501910209656
4.82,-0.3037245571613312,0.1278279572725296,0.19240771234035492,-0.06100000441074371,-0.9604145288467407,0.25284501910209656
4.84,-0.28348514437675476,0.1065233051776886,0.2742975056171417,-0.06441599875688553,-0.9472079873085022,0.25113698840141296
4.86,-0.3218335211277008,0.13634982705116272,0.264710396528244,-0.06441599875688553,-0.9472079873085022,0.25113698840141296
4.88,-0.3442034125328064,0.2450035959482193,0.183885857462883,-0.0006710000452585518,-0.997776985168457,0.19519999623298645
4.9,-0.3250292241573334,0.3089175820350647,0.12849372625350952,-0.0006710000452585518,-0.997776985168457,0.19519999623298645
4.92,-0.29626792669296265,0.35578784346580505,0.09227581322193146,-0.058316003531217575,-0.9963130354881287,0.18983200192451477
4.94,-0.2557890713214874,0.4122451841831207,0.09760197252035141,-0.09909449517726898,-0.9863089919090271,0.16076549887657166
4.96,-0.23874534666538239,0.4793548583984375,0.1412765234708786,-0.13230900466442108,-0.9835944771766663,0.1617414951324463
4.98,-0.24620197713375092,0.46444159746170044,0.17110306024551392,-0.14258749783039093,-0.9787145256996155,0.1487790048122406
5,-0.2696371078491211,0.3824186623096466,0.1732335239648819,-0.12962500751018524,-0.9757865071296692,0.12532450258731842
5.02,-0.2898765504360199,0.28441721200942993,0.16471165418624878,-0.13206499814987183,-0.9711505174636841,0.13044849038124084
5.04,-0.2909417748451233,0.2141118347644806,0.13914605975151062,-0.129381000995636,-0.9782265424728394,0.14365500211715698
5.06,-0.25898477435112,0.14593692123889923,0.09653674066066742,-0.13304099440574646,-0.9792025089263916,0.15146300196647644
5.08,-0.25152814388275146,0.10239552706480026,0.06351451575756073,-0.12840498983860016,-0.9779825210571289,0.14097100496292114
5.1,-0.24939768016338348,0.060851436108350754,0.04007939249277115,-0.12206100672483444,-0.9704185128211975,0.1331629902124405
5.12,-0.25152814388275146,0.010785484686493874,0.013448567129671574,-0.10909850150346756,-0.9774945378303528,0.12410449236631393
5.14,-0.23981058597564697,-0.016910573467612267,0.0027962366584688425,-0.11620499938726425,-0.9838384985923767,0.1172725036740303
5.16,-0.21850591897964478,-0.03608476743102074,0.005991935729980469,-0.11352100223302841,-0.9850584864616394,0.10333400219678879
5.18,-0.19080986082553864,-0.035019535571336746,0.014513799920678139,-0.10495050251483917,-0.9811544418334961,0.08893799781799316
5.2,-0.16950520873069763,-0.03288906812667847,0.01983996480703354,-0.10495050251483917,-0.9811544418334961,0.08893799781799316
5.22,-0.14820054173469543,-0.010519175790250301,0.02410089783370495,-0.09763050079345703,-0.9938730001449585,0.0840580016374588
5.24,-0.12370018661022186,0.011850717477500439,0.02410089783370495,-0.09226249903440475,-0.9889929890632629,0.06548349559307098
5.26,-0.10452599078416824,0.028894444927573204,0.02729659713804722,-0.10519450902938843,-0.9892370104789734,0.0840580016374588
5.28,-0.07576470077037811,0.037416309118270874,0.02623136341571808,-0.11230100691318512,-0.9887490272521973,0.07255949825048447
5.3,-0.041677240282297134,0.029959678649902344,0.02516612969338894,-0.12010899931192398,-0.9926530122756958,0.07085149735212326
5.32,-0.021437814459204674,0.017176883295178413,0.02090519852936268,-0.12279299646615982,-0.9885050058364868,0.07625000178813934
5.34,0.0007989247678779066,0.004394086077809334,0.01664426550269127,-0.12840498983860016,-0.9887490272521973,0.0676795020699501
5.36,0.017842652276158333,0.0001331541279796511,0.011318100616335869,-0.13230900466442108,-0.9926530122756958,0.07402350008487701
5.38,0.03488638252019882,0.0001331541279796511,0.0017310036346316338,-0.1252330094575882,-0.9801784753799438,0.07402350008487701
5.4,0.05619104206562042,-0.001997311832383275,-0.008921326138079166,-0.1252330094575882,-0.9801784753799438,0.07402350008487701
5.42,0.07856093347072601,-0.005193010903894901,-0.01744319126009941,-0.12328100204467773,-0.9831064939498901,0.07893399894237518
5.44,0.10519175976514816,-0.009453942999243736,-0.011051792651414871,-0.12157300114631653,-0.9902129769325256,0.08844999969005585
5.46,0.12436595559120178,-0.021171506494283676,-0.006790860556066036,-0.12474500387907028,-0.9855464696884155,0.08576600253582001
5.48,0.13927921652793884,-0.03608476743102074,-0.0025299284607172012,-0.12084099650382996,-0.9816425442695618,0.09040199965238571
5.5,0.14140968024730682,-0.037150003015995026,-0.004660394508391619,-0.11742500215768814,-0.9838384985923767,0.0852779969573021
5.52,0.1552577167749405,-0.052063263952732086,-0.0014646954368799925,-0.11742500215768814,-0.9838384985923767,0.0852779969573021
5.54,0.16271434724330902,-0.05632419511675835,-0.0003994623839389533,-0.1176690086722374,-0.9811544418334961,0.09601400047540665
5.56,0.17230144143104553,-0.06484606117010117,-0.007856093347072601,-0.11620499938726425,-0.9821305274963379,0.10482849925756454
5.58,0.18827994167804718,-0.06804175674915314,0.0038614696823060513,-0.11888900399208069,-0.9850584864616394,0.11873650550842285
5.6,0.21384553611278534,-0.06591129302978516,0.009187635034322739,-0.11693699657917023,-0.9867969751358032,0.12142050266265869
5.62,0.2276935577392578,-0.06910699605941772,0.01983996480703354,-0.11693699657917023,-0.9867969751358032,0.12142050266265869
5.64,0.2404763549566269,-0.06484606117010117,0.02729659713804722,-0.11254499852657318,-0.9823745489120483,0.12825249135494232
5.66,0.25752007961273193,-0.057389430701732635,0.02836182899773121,-0.10961700230836868,-0.9870409369468689,0.14609499275684357
5.68,0.2820204496383667,-0.040345702320337296,0.02836182899773121,-0.10861050337553024,-0.9863089919090271,0.1504869908094406
5.7,0.35126060247421265,-0.004127778112888336,0.03688369318842888,-0.11840099841356277,-1.0009490251541138,0.15707498788833618
5.72,0.37043479084968567,-0.027562905102968216,0.04647079110145569,-0.13206499814987183,-0.9960689544677734,0.16735349595546722
5.74,0.4631100594997406,-0.047802332788705826,0.0454055592417717,-0.1118130013346672,-0.9933850169181824,0.1663774996995926
5.76,0.48121902346611023,-0.06271559745073318,0.04114462435245514,-0.11132500320672989,-0.9887490272521973,0.16710950434207916
5.78,0.45991435647010803,-0.04673709720373154,0.02090519852936268,-0.1042185053229332,-0.9721264839172363,0.17125751078128815
5.8,0.42476168274879456,-0.011584409512579441,0.02410089783370495,-0.09104250371456146,-0.9501360654830933,0.17174550890922546
5.82,0.3587172329425812,-0.0009320789249613881,0.03155753016471863,-0.0907985046505928,-0.929609477519989,0.18126149475574493
5.84,0.3139774203300476,0.013981183059513569,0.005991935729980469,-0.0907985046505928,-0.929609477519989,0.18126149475574493
5.86,0.23301972448825836,0.028894444927573204,0.000665770610794425,-0.1420994997024536,-0.9122855067253113,0.25284501910209656
5.88,0.1850842386484146,0.017176883295178413,0.014513799920678139,-0.1420994997024536,-0.9122855067253113,0.25284501910209656
5.9,0.1552577167749405,0.005459319334477186,0.03049229457974434,-0.1630835086107254,-0.9303414821624756,0.2784954905509949
5.92,0.12330072373151779,-0.023301972076296806,0.0560578890144825,-0.18043801188468933,-0.9511120319366455,0.3114660084247589
5.94,0.11584409326314926,-0.06804175674915314,0.0560578890144825,-0.17433799803256989,-0.9579439759254456,0.30707401037216187
5.96,0.12330072373151779,-0.0925421193242073,0.04114462435245514,-0.14356349408626556,-0.9435479640960693,0.28215548396110535
5.98,0.11797455698251724,-0.07549838721752167,0.000665770610794425,-0.11718100309371948,-0.9357399940490723,0.2579690217971802
6,0.09347419440746307,-0.041410934180021286,-0.02489982172846794,-0.10470650345087051,-0.9266815185546875,0.24942901730537415
6.02,0.04021254554390907,-0.009453942999243736,-0.03874785080552101,-0.1088544949889183,-0.9169214963912964,0.23475851118564606
6.04,-0.006524552125483751,0.012915950268507004,-0.05259587988257408,-0.1088544949889183,-0.9169214963912964,0.23475851118564606
6.06,-0.06404713541269302,0.03954677656292915,-0.05898727849125862,-0.11132500320672989,-0.9149695038795471,0.23036648333072662
6.08,-0.08854749798774719,0.041677240282297134,-0.04726971685886383,-0.119377002120018,-0.940619945526123,0.2416209876537323
6.1,-0.0778951644897461,0.048068638890981674,-0.01744319126009941,-0.12498899549245834,-0.966514527797699,0.24698899686336517
6.12,-0.022503048181533813,0.057655736804008484,0.02197043038904667,-0.11986500769853592,-0.9897249937057495,0.2433290034532547
6.14,0.05299534276127815,0.050199106335639954,0.04327509179711342,-0.11913299560546875,-0.9894810318946838,0.2416209876537323
6.16,0.1446053832769394,0.04913387447595596,0.06457975506782532,-0.11571700125932693,-0.9902129769325256,0.23475851118564606
6.18,0.18827994167804718,0.067242830991745,0.07523208111524582,-0.11913299560546875,-0.9559919834136963,0.23036648333072662
6.2,0.22023692727088928,0.05978620424866676,0.09227581322193146,-0.12425700575113297,-0.9476959705352783,0.23305049538612366
6.22,0.22662831842899323,0.011850717477500439,0.10079767554998398,-0.1374634951353073,-0.9581879377365112,0.24650099873542786
6.24,0.22236739099025726,-0.012649642303586006,0.09547150880098343,-0.14575950801372528,-0.9589504599571228,0.259676992893219
6.26,0.21064983308315277,-0.041410934180021286,0.0880148783326149,-0.1474675089120865,-0.9611465334892273,0.2736154794692993
6.28,0.19147562980651855,-0.043541401624679565,0.08481918275356293,-0.13697549700737,-0.9569680094718933,0.28557151556015015
6.3,0.19999749958515167,-0.045671865344047546,0.08481918275356293,-0.13770750164985657,-0.9638304710388184,0.3029260039329529
6.32,0.2191716879606247,-0.038215234875679016,0.07523208111524582,-0.1403914988040924,-0.9542840719223022,0.30487799644470215
6.34,0.2404763549566269,-0.037150003015995026,0.06351451575756073,-0.14014749228954315,-0.9354959726333618,0.3087819814682007
6.36,0.2617810070514679,-0.024367205798625946,0.05392742156982422,-0.1462474912405014,-0.9298534989356995,0.3073180019855499
6.38,0.2809551954269409,-0.011584409512579441,0.05499265342950821,-0.13523699343204498,-0.9203374981880188,0.31024599075317383
6.4,0.26497671008110046,0.028894444927573204,0.05818835273385048,-0.13892750442028046,-0.9098455309867859,0.2946299910545349
6.42,0.2511286735534668,0.06830807030200958,0.04327509179711342,-0.12742900848388672,-0.9032270312309265,0.29264751076698303
6.44,0.22343263030052185,0.06937330216169357,0.04007939249277115,-0.14551550149917603,-0.9200934767723083,0.3114660084247589
6.46,0.1754971444606781,0.10545806586742401,0.05712312087416649,-0.14551550149917603,-0.9200934767723083,0.3114660084247589
6.48,0.10732222348451614,-0.017975807189941406,0.05499265342950821,-0.15137150883674622,-0.8968830108642578,0.30780601501464844
6.5,0.09453943371772766,-0.06271559745073318,0.04114462435245514,-0.16259551048278809,-0.9147255420684814,0.35325101017951965
6.52,0.022103585302829742,-0.10852061212062836,0.05073172226548195,-0.16259551048278809,-0.9147255420684814,0.35325101017951965
6.54,-0.03848154470324516,-0.06484606117010117,0.04966649040579796,-0.15820351243019104,-0.9210695028305054,0.3534950017929077
6.56,-0.10026505589485168,0.008655018173158169,0.08055824786424637,-0.1572275012731552,-0.9210695028305054,0.3407765030860901
6.58,-0.09600412845611572,0.015046416781842709,0.06990591436624527,-0.1572275012731552,-0.9210695028305054,0.3407765030860901
6.6,-0.09600412845611572,-0.026497671380639076,0.04114462435245514,-0.15625150501728058,-0.9005430340766907,0.33931249380111694
6.62,-0.08322133123874664,-0.040345702320337296,0.02197043038904667,-0.15625150501728058,-0.9005430340766907,0.33931249380111694
6.64,-0.09174319356679916,-0.06804175674915314,-0.0185084231197834,-0.15161550045013428,-0.9088694453239441,0.3390685021877289
6.66,-0.10559122264385223,-0.06910699605941772,-0.03768261894583702,-0.14283150434494019,-0.91862952709198,0.33638447523117065
6.68,-0.10133028775453568,-0.060585130006074905,-0.04300878196954727,-0.13523699343204498,-0.9411080479621887,0.3324804902076721
6.7,-0.10665645450353622,-0.048867564648389816,-0.04194355010986328,-0.13523699343204498,-0.9411080479621887,0.3324804902076721
6.72,-0.07896039634943008,0.044872939586639404,-0.01744319126009941,-0.12376900017261505,-0.922777533531189,0.320250004529953
6.74,-0.067242830991745,0.11397993564605713,-0.0185084231197834,-0.14234349131584167,-0.9230215549468994,0.32589250802993774
6.76,-0.048068638890981674,0.16830681264400482,-0.013182258233428001,-0.14234349131584167,-0.9230215549468994,0.32589250802993774
6.78,-0.07576470077037811,0.15765449404716492,-0.02809552103281021,-0.17092199623584747,-0.9047214388847351,0.30365800857543945
6.8,-0.08535179495811462,0.13528458774089813,-0.02916075475513935,-0.18336600065231323,-0.9174094796180725,0.3073180019855499
6.82,-0.07150376588106155,0.09706936031579971,-0.02596505545079708,-0.1667739897966385,-0.921313464641571,0.3109780251979828
6.84,-0.05232957378029823,0.06298190355300903,-0.01957365684211254,-0.149663507938385,-0.9096015095710754,0.29435551166534424
6.86,-0.037416309118270874,0.16830681264400482,-0.02489982172846794,-0.14771150052547455,-0.9137495160102844,0.29682600498199463
6.88,0.05086487531661987,0.08215609937906265,-0.03342168778181076,-0.14771150052547455,-0.9137495160102844,0.29682600498199463
6.9,0.3256950080394745,0.4346150755882263,-0.05153064802289009,-0.13596899807453156,-0.9205814599990845,0.24820898473262787
6.92,0.525958776473999,0.5667039752006531,-0.06644391268491745,-0.11425299942493439,-0.9257054924964905,0.3744789958000183
6.94,0.5621767044067383,0.5091813802719116,-0.07070484012365341,-0.13770750164985657,-0.9535519480705261,0.34809648990631104
6.96,0.19147562980651855,0.034220609813928604,-0.07390054315328598,-0.15112748742103577,-0.9467200040817261,0.25650498270988464
6.98,-0.20998406410217285,-0.08082455396652222,-0.05579157918691635,-0.19779250025749207,-0.9709064960479736,0.35276299715042114
7,-0.3314206302165985,-0.12023817747831345,-0.03022598661482334,-0.17921799421310425,-0.9345200061798096,0.3449244797229767
7.02,-0.34952959418296814,-0.12449911236763,0.0027962366584688425,-0.17921799421310425,-0.9345200061798096,0.3449244797229767
7.04,-0.25259336829185486,-0.058454662561416626,0.02090519852936268,-0.14722350239753723,-0.8956630229949951,0.3337005078792572
7.06,-0.1418091505765915,-0.014780107885599136,0.02942706272006035,-0.13795149326324463,-0.9115535020828247,0.32662448287010193
7.08,-0.025698747485876083,-0.0009320789249613881,0.013448567129671574,-0.13426099717617035,-0.9281455278396606,0.31878599524497986
7.1,0.00719032296910882,0.0033288532868027687,-0.02170412242412567,-0.13892750442028046,-0.9345200061798096,0.30829399824142456
7.12,-0.033155377954244614,0.031024912372231483,-0.04194355010986328,-0.13892750442028046,-0.9281455278396606,0.3026820123195648
7.14,-0.09600412845611572,0.06830807030200958,-0.05153064802289009,-0.1374634951353073,-0.9247294664382935,0.29975399374961853
7.16,-0.08961272984743118,0.06937330216169357,-0.03874785080552101,-0.14941950142383575,-0.9423280358314514,0.30438998341560364
7.18,-0.03954677656292915,0.044872939586639404,-0.01744319126009941,-0.1567395031452179,-0.9474520087242126,0.2999979853630066
7.2,-0.023568280041217804,0.010785484686493874,-0.006790860556066036,-0.16332750022411346,-0.9386680126190186,0.3009739816188812
7.22,-0.012915950268507004,-0.03928046673536301,0.000665770610794425,-0.16088749468326569,-0.9333000183105469,0.29093948006629944
7.24,0.0061250897124409676,-0.08188978582620621,-0.005725627299398184,-0.16186349093914032,-0.9408639669418335,0.29487401247024536
7.26,0.04447348043322563,-0.09573781490325928,-0.011051792651414871,-0.1567395031452179,-0.9401319622993469,0.30243802070617676
7.28,0.04234301298856735,-0.10106398165225983,-0.02489982172846794,-0.14893148839473724,-0.9342759847640991,0.31195399165153503
7.3,0.011451254598796368,-0.09573781490325928,-0.02063889056444168,-0.1462474912405014,-0.9354959726333618,0.3104900121688843
7.32,-0.015046416781842709,-0.08721595257520676,-0.01637795753777027,-0.1462474912405014,-0.9354959726333618,0.3104900121688843
7.34,-0.047003407031297684,-0.07336792349815369,-0.02489982172846794,-0.1479555070400238,-0.9235095381736755,0.32589250802993774
7.36,-0.06404713541269302,-0.07549838721752167,-0.03874785080552101,-0.15307949483394623,-0.9205814599990845,0.3244284987449646
7.38,-0.08961272984743118,-0.0936073511838913,-0.05366111174225807,-0.15454350411891937,-0.9174094796180725,0.32049399614334106
7.4,-0.12689588963985443,-0.13302096724510193,-0.09094426780939102,-0.15112748742103577,-0.9147255420684814,0.31366199254989624
7.42,-0.11624355614185333,-0.13941237330436707,-0.11757509410381317,-0.14941950142383575,-0.914481520652771,0.311710000038147
7.44,-0.057655736804008484,-0.1468690037727356,-0.12929265201091766,-0.14356349408626556,-0.9259494543075562,0.2941114902496338
7.46,-0.04274247586727142,-0.12236864119768143,-0.10905323177576065,-0.1176690086722374,-0.9376920461654663,0.2946299910545349
7.48,-0.08322133123874664,-0.031823836266994476,-0.06005251035094261,-0.10373049974441528,-0.9481840133666992,0.28679150342941284
7.5,-0.13435252010822296,0.031024912372231483,-0.03661738336086273,-0.09031049907207489,-0.9386680126190186,0.2887434959411621
7.52,-0.15778763592243195,0.0778951644897461,-0.03874785080552101,-0.09250649809837341,-0.9310735464096069,0.29020750522613525
7.54,-0.14607007801532745,0.1171756312251091,-0.0611177459359169,-0.10153450071811676,-0.9359839558601379,0.29142749309539795
7.56,-0.09600412845611572,0.15126308798789978,-0.08455286920070648,-0.11962100118398666,-0.9433040022850037,0.2970699965953827
7.58,-0.05659050494432449,0.18748101592063904,-0.08668334037065506,-0.11791300028562546,-0.9411080479621887,0.2858155071735382
7.6,-0.040612008422613144,0.20772044360637665,-0.09094426780939102,-0.11986500769853592,-0.9423280358314514,0.28898751735687256
7.62,-0.050199106335639954,0.2141118347644806,-0.09200949966907501,-0.13426099717617035,-0.9679784774780273,0.29975399374961853
7.64,-0.09600412845611572,0.1906767040491104,-0.08987903594970703,-0.12596499919891357,-0.955016016960144,0.29585000872612
7.66,-0.16950520873069763,0.18641577661037445,-0.08135717362165451,-0.12450099736452103,-0.9618784785270691,0.29093948006629944
7.68,-0.2248973250389099,0.1821548491716385,-0.06750914454460144,-0.1269410103559494,-0.9621224999427795,0.28849950432777405
7.7,-0.26324570178985596,0.16298064589500427,-0.05259587988257408,-0.13011300563812256,-0.9552600383758545,0.2770315110683441
7.72,-0.28455036878585815,0.12037133425474167,-0.04940018057823181,-0.10961700230836868,-0.9481840133666992,0.251380980014801
7.74,-0.2909417748451233,0.09067796170711517,-0.05153064802289009,-0.11327699571847916,-0.9357399940490723,0.24942901730537415
7.76,-0.2877460718154907,0.061916667968034744,-0.05898727849125862,-0.11327699571847916,-0.9357399940490723,0.24942901730537415
7.78,-0.2675066292285919,0.040612008422613144,-0.0717700719833374,-0.1059264987707138,-0.9452559351921082,0.23475851118564606
7.8,-0.25365862250328064,0.024633513763546944,-0.08135717362165451,-0.1059264987707138,-0.9452559351921082,0.23475851118564606
7.82,-0.2472672164440155,0.006524552125483751,-0.08135717362165451,-0.10470650345087051,-0.9501360654830933,0.22011849284172058
7.84,-0.237680122256279,-0.014780107885599136,-0.08029194176197052,-0.10470650345087051,-0.9501360654830933,0.22011849284172058
7.86,-0.23022349178791046,-0.023301972076296806,-0.0717700719833374,-0.11083699762821198,-0.9696865081787109,0.20983999967575073
7.88,-0.21744069457054138,-0.027562905102968216,-0.06431344151496887,-0.1118130013346672,-0.9706624746322632,0.20983999967575073
7.9,-0.2046578973531723,-0.020106272771954536,-0.0611177459359169,-0.1118130013346672,-0.9706624746322632,0.20983999967575073
7.92,-0.1940055638551712,-0.022236740216612816,-0.0504654161632061,-0.11083699762821198,-0.9774945378303528,0.20642399787902832
7.94,-0.1833532303571701,-0.026497671380639076,-0.03661738336086273,-0.10251050442457199,-0.9760304689407349,0.19349201023578644
7.96,-0.18015754222869873,-0.023301972076296806,-0.03022598661482334,-0.0966544970870018,-0.9767624735832214,0.1920280009508133
7.98,-0.17909230291843414,-0.015845341607928276,-0.03129122033715248,-0.10373049974441528,-0.9840825200080872,0.19154000282287598
8,-0.16737474501132965,-0.008388710208237171,-0.02703028731048107,-0.0949464961886406,-0.9811544418334961,0.19178400933742523
8.02,-0.1407439112663269,-0.006258244160562754,-0.02596505545079708,-0.08860250562429428,-0.9799345135688782,0.19227200746536255
8.04,-0.11091738939285278,0.007589785382151604,-0.02170412242412567,-0.09714249521493912,-0.9782265424728394,0.17784550786018372
8.06,-0.08535179495811462,0.009720250964164734,-0.01744319126009941,-0.09397049993276596,-0.9796904921531677,0.17662550508975983
8.08,-0.05659050494432449,0.011850717477500439,-0.015312724746763706,-0.09543450176715851,-0.9745665192604065,0.17247749865055084
8.1,-0.043807707726955414,0.011850717477500439,-0.009986559860408306,-0.0920184999704361,-0.9762744903564453,0.1663774996995926
8.12,-0.03209014609456062,0.016111649572849274,-0.006790860556066036,-0.09006650000810623,-0.9792025089263916,0.1663774996995926
8.14,-0.011850717477500439,0.023568280041217804,-0.0003994623839389533,-0.08957850188016891,-0.9818865656852722,0.16588950157165527
8.16,0.0061250897124409676,0.025698747485876083,0.005991935729980469,-0.09275049716234207,-0.9840825200080872,0.17028149962425232
8.18,0.026364516466856003,0.025698747485876083,0.010252867825329304,-0.0937265008687973,-0.978470504283905,0.17028149962425232
8.2,0.0476691760122776,0.023568280041217804,0.014513799920678139,-0.09616649895906448,-0.9804224967956543,0.17540550231933594
8.22,0.0689738392829895,0.021437814459204674,0.01770949922502041,-0.09616649895906448,-0.9804224967956543,0.17540550231933594
8.24,0.08175663650035858,0.017176883295178413,0.02303566411137581,-0.09811849892139435,-0.9760304689407349,0.17516149580478668
8.26,0.10412652790546417,0.008655018173158169,0.02836182899773121,-0.09909449517726898,-0.9760304689407349,0.17296549677848816
8.28,0.11903978884220123,0.009720250964164734,0.03262276202440262,-0.0995825007557869,-0.9787145256996155,0.18223750591278076
8.3,0.12862688302993774,0.004394086077809334,0.03794892504811287,-0.0995825007557869,-0.9787145256996155,0.18223750591278076
8.32,0.1424749195575714,-0.006258244160562754,0.03901416063308716,-0.10153450071811676,-0.9752985239028931,0.19007599353790283
8.34,0.16164910793304443,-0.014780107885599136,0.04753602296113968,-0.10153450071811676,-0.9752985239028931,0.19007599353790283
8.36,0.18295377492904663,-0.024367205798625946,0.0560578890144825,-0.10153450071811676,-0.9796904921531677,0.19129601120948792
8.38,0.20212796330451965,-0.030758604407310486,0.05712312087416649,-0.10446249693632126,-0.9701744914054871,0.1971520036458969
8.4,0.21491076052188873,-0.030758604407310486,0.05818835273385048,-0.10812249779701233,-0.9677344560623169,0.20447200536727905
8.42,0.22556309401988983,-0.029693370684981346,0.05818835273385048,-0.10739050805568695,-0.9674904942512512,0.21081599593162537
8.44,0.23301972448825836,-0.027562905102968216,0.06564498692750931,-0.10690250247716904,-0.964074432849884,0.21377450227737427
8.46,0.24473728239536285,-0.038215234875679016,0.05925358831882477,-0.10836649686098099,-0.9645625352859497,0.22280248999595642
8.48,0.2521939277648926,-0.033954303711652756,0.06244928762316704,-0.1118130013346672,-0.9679784774780273,0.22719451785087585
8.5,0.2713681161403656,-0.03608476743102074,0.0667102187871933,-0.1118130013346672,-0.9635864496231079,0.23597851395606995
8.52,0.2820204496383667,-0.035019535571336746,0.06884068250656128,-0.1118130013346672,-0.9635864496231079,0.23597851395606995
8.54,0.291607528924942,-0.037150003015995026,0.07203638553619385,-0.11059299111366272,-0.95306396484375,0.251380980014801
8.56,0.28841185569763184,-0.037150003015995026,0.07097115367650986,-0.11693699657917023,-0.9537959694862366,0.25577297806739807
8.58,0.27456381916999817,-0.030758604407310486,0.06777545064687729,-0.11693699657917023,-0.9537959694862366,0.25577297806739807
8.6,0.26817241311073303,-0.033954303711652756,0.06564498692750931,-0.11669300496578217,-0.9491599798202515,0.26824751496315
8.62,0.2628462612628937,-0.031823836266994476,0.06564498692750931,-0.12108500301837921,-0.9455000758171082,0.28093549609184265
8.64,0.2585853040218353,-0.03288906812667847,0.06884068250656128,-0.12108500301837921,-0.9455000758171082,0.28093549609184265
8.66,0.25325915217399597,-0.028628136962652206,0.0667102187871933,-0.1235249936580658,-0.9386680126190186,0.29093948006629944
8.68,0.24686774611473083,-0.027562905102968216,0.05712312087416649,-0.1235249936580658,-0.9372040629386902,0.30365800857543945
8.7,0.24367205798625946,-0.022236740216612816,0.05286218971014023,-0.1310890018939972,-0.9401319622993469,0.311710000038147
8.72,0.24260681867599487,-0.026497671380639076,0.05073172226548195,-0.1310890018939972,-0.9401319622993469,0.311710000038147
8.74,0.23088926076889038,-0.024367205798625946,0.05179695412516594,-0.1264529973268509,-0.9345200061798096,0.30951398611068726
8.76,0.21597599983215332,-0.029693370684981346,0.04114462435245514,-0.13133300840854645,-0.931835949420929,0.3190299868583679
8.78,0.2085193693637848,-0.03288906812667847,0.03688369318842888,-0.1315770000219345,-0.92546147108078,0.32171398401260376
8.8,0.1957365721464157,-0.03288906812667847,0.03262276202440262,-0.12474500387907028,-0.9232655167579651,0.3249165117740631
8.82,0.17762760818004608,-0.038215234875679016,0.02410089783370495,-0.12474500387907028,-0.9232655167579651,0.3249165117740631
8.84,0.16271434724330902,-0.035019535571336746,0.02090519852936268,-0.1298689991235733,-0.9203374981880188,0.3366284966468811
8.86,0.14567062258720398,-0.040345702320337296,0.02303566411137581,-0.12547700107097626,-0.9183855652809143,0.3390685021877289
8.88,0.13821399211883545,-0.042476166039705276,0.01664426550269127,-0.12742900848388672,-0.9174094796180725,0.34272849559783936
8.9,0.12756165862083435,-0.041410934180021286,0.01664426550269127,-0.12181700021028519,-0.9142375588417053,0.3446804881095886
8.92,0.11584409326314926,-0.044606633484363556,0.013448567129671574,-0.1223049983382225,-0.9203374981880188,0.3512990176677704
8.94,0.09560466557741165,-0.04993279650807381,0.005991935729980469,-0.1223049983382225,-0.9135055541992188,0.3505669832229614
8.96,0.08069140464067459,-0.042476166039705276,-0.0003994623839389533,-0.12157300114631653,-0.9110655188560486,0.3559350073337555
8.98,0.06471290439367294,-0.043541401624679565,-0.0025299284607172012,-0.12010899931192398,-0.9154574871063232,0.3659389913082123
9,0.0583215095102787,-0.038215234875679016,-0.0003994623839389533,-0.1223049983382225,-0.9200934767723083,0.35666701197624207
9.02,0.05193011090159416,-0.033954303711652756,-0.0014646954368799925,-0.1269410103559494,-0.9115535020828247,0.35447099804878235
9.04,0.04021254554390907,-0.027562905102968216,0.0038614696823060513,-0.119377002120018,-0.9135055541992188,0.3598390221595764
9.06,0.025299284607172012,-0.017975807189941406,-0.0025299284607172012,-0.11278900504112244,-0.9115535020828247,0.3552030026912689
9.08,-0.00226362026296556,-0.0030625448562204838,-0.008921326138079166,-0.11278900504112244,-0.9115535020828247,0.3552030026912689
9.1,-0.015046416781842709,0.0033288532868027687,-0.008921326138079166,-0.12035300582647324,-0.9152135252952576,0.35032299160957336
9.12,-0.026763979345560074,0.011850717477500439,-0.007856093347072601,-0.12035300582647324,-0.9147255420684814,0.3600830137729645
9.14,-0.031024912372231483,0.013981183059513569,-0.008921326138079166,-0.11864499747753143,-0.9152135252952576,0.35544702410697937
9.16,-0.03848154470324516,0.018242115154862404,-0.009986559860408306,-0.11986500769853592,-0.9120414853096008,0.35739898681640625
9.18,-0.048068638890981674,0.024633513763546944,-0.007856093347072601,-0.12084099650382996,-0.9152135252952576,0.35569101572036743
9.2,-0.05978620424866676,0.025698747485876083,-0.012117025442421436,-0.12596499919891357,-0.9154574871063232,0.35910698771476746
9.22,-0.06511236727237701,0.027829213067889214,-0.015312724746763706,-0.12206100672483444,-0.9181415438652039,0.3617909848690033
9.24,-0.07150376588106155,0.026763979345560074,-0.013182258233428001,-0.12010899931192398,-0.9232655167579651,0.3552030026912689
9.26,-0.08322133123874664,0.025698747485876083,-0.01637795753777027,-0.11986500769853592,-0.9174094796180725,0.35032299160957336
9.28,-0.08961272984743118,0.022503048181533813,-0.015312724746763706,-0.12401299923658371,-0.9183855652809143,0.34934699535369873
9.3,-0.0991998240351677,0.023568280041217804,-0.01744319126009941,-0.1264529973268509,-0.9149695038795471,0.34736451506614685
9.32,-0.11091738939285278,0.023568280041217804,-0.0185084231197834,-0.1205969974398613,-0.9166774749755859,0.33809250593185425
9.34,-0.1194392517209053,0.024633513763546944,-0.01744319126009941,-0.12108500301837921,-0.92546147108078,0.3446804881095886
9.36,-0.12689588963985443,0.025698747485876083,-0.02170412242412567,-0.12084099650382996,-0.9242414832115173,0.33638447523117065
9.38,-0.12583065032958984,0.025698747485876083,-0.02063889056444168,-0.1205969974398613,-0.9252175092697144,0.3373605012893677
9.4,-0.1300915777683258,0.023568280041217804,-0.0238345880061388,-0.12157300114631653,-0.9210695028305054,0.33516448736190796
9.42,-0.13328728079795837,0.021437814459204674,-0.02703028731048107,-0.11815699189901352,-0.9266815185546875,0.33296850323677063
9.44,-0.14500483870506287,0.022503048181533813,-0.03874785080552101,-0.11815699189901352,-0.9303414821624756,0.3319924771785736
9.46,-0.14926578104496002,0.026763979345560074,-0.03874785080552101,-0.12206100672483444,-0.9310735464096069,0.32638049125671387
9.48,-0.15565717220306396,0.024633513763546944,-0.03768261894583702,-0.11498500406742096,-0.9342759847640991,0.32418450713157654
9.5,-0.15885287523269653,0.03209014609456062,-0.03661738336086273,-0.1130329966545105,-0.9345200061798096,0.31829798221588135
9.52,-0.16417904198169708,0.03209014609456062,-0.04087831825017929,-0.1130329966545105,-0.9345200061798096,0.31829798221588135
9.54,-0.16524426639080048,0.036351077258586884,-0.04300878196954727,-0.11620499938726425,-0.9376920461654663,0.3073180019855499
9.56,-0.1716356724500656,0.03848154470324516,-0.04513924941420555,-0.11620499938726425,-0.9376920461654663,0.3073180019855499
9.58,-0.17909230291843414,0.03954677656292915,-0.04300878196954727,-0.11498500406742096,-0.9450119733810425,0.3017060160636902
9.6,-0.17589659988880157,0.03954677656292915,-0.04726971685886383,-0.11498500406742096,-0.9450119733810425,0.3017060160636902
9.62,-0.17483137547969818,0.03848154470324516,-0.04407401755452156,-0.1101050078868866,-0.942084014415741,0.2906954884529114
9.64,-0.17057043313980103,0.03528584539890289,-0.04620448127388954,-0.10961700230836868,-0.9491599798202515,0.2853274941444397
9.66,-0.1631138026714325,0.03954677656292915,-0.04513924941420555,-0.10812249779701233,-0.9513559937477112,0.2772755026817322
9.68,-0.15991811454296112,0.036351077258586884,-0.04300878196954727,-0.11034899950027466,-0.9535519480705261,0.27581149339675903
9.7,-0.15459194779396057,0.028894444927573204,-0.039813082665205,-0.1071465015411377,-0.9579439759254456,0.2711755037307739
9.72,-0.1407439112663269,0.027829213067889214,-0.03555215150117874,-0.1071465015411377,-0.9579439759254456,0.2711755037307739
9.74,-0.1311568170785904,0.027829213067889214,-0.03129122033715248,-0.10324250161647797,-0.9569680094718933,0.2680034935474396
9.76,-0.12370018661022186,0.024633513763546944,-0.02596505545079708,-0.10739050805568695,-0.9564799666404724,0.2665089964866638
9.78,-0.1194392517209053,0.016111649572849274,-0.02170412242412567,-0.10617049783468246,-0.9569680094718933,0.2560169994831085
9.8,-0.1087869256734848,0.011850717477500439,-0.0185084231197834,-0.10617049783468246,-0.9569680094718933,0.2560169994831085
9.82,-0.09493889659643173,0.012915950268507004,-0.02170412242412567,-0.10519450902938843,-0.96236652135849,0.251380980014801
9.84,-0.07896039634943008,0.006524552125483751,-0.015312724746763706,-0.10495050251483917,-0.957211971282959,0.25528499484062195
9.86,-0.07150376588106155,0.00226362026296556,-0.015312724746763706,-0.10348649322986603,-0.964318573474884,0.24869699776172638
9.88,-0.054460037499666214,0.004394086077809334,-0.011051792651414871,-0.10104650259017944,-0.9589504599571228,0.24747700989246368
9.9,-0.043807707726955414,0.0011983871227130294,-0.008921326138079166,-0.10397449880838394,-0.9648065567016602,0.24113300442695618
9.92,-0.036351077258586884,0.00226362026296556,-0.009986559860408306,-0.10397449880838394,-0.9604145288467407,0.2433290034532547
9.94,-0.026763979345560074,-0.0009320789249613881,-0.005725627299398184,-0.10446249693632126,-0.9574559926986694,0.24723300337791443
9.96,-0.017176883295178413,0.0001331541279796511,-0.00359516148455441,-0.0995825007557869,-0.961390495300293,0.24820898473262787
9.98,-0.007589785382151604,-0.001997311832383275,-0.0014646954368799925,-0.10104650259017944,-0.9660264849662781,0.24772100150585175
10,0.002929390873759985,0.0001331541279796511,0.0038614696823060513,-0.10104650259017944,-0.9660264849662781,0.24772100150585175
10.02,0.010386021807789803,0.00226362026296556,0.004926702938973904,-0.10299849510192871,-0.9611465334892273,0.24698899686336517
10.04,0.03169068321585655,0.0011983871227130294,0.005991935729980469,-0.09909449517726898,-0.961390495300293,0.2526009976863861
10.06,0.03808208182454109,0.004394086077809334,0.007057168986648321,-0.09909449517726898,-0.961390495300293,0.2526009976863861
10.08,0.05406057462096214,0.005459319334477186,0.01877473294734955,-0.10568249225616455,-0.961390495300293,0.2533330023288727
10.1,0.06471290439367294,0.0001331541279796511,0.02516612969338894,-0.10446249693632126,-0.9589504599571228,0.25113698840141296
10.12,0.07749570161104202,0.0001331541279796511,0.02729659713804722,-0.10446249693632126,-0.9589504599571228,0.25113698840141296
10.14,0.08388710021972656,0.005459319334477186,0.02836182899773121,-0.10763449966907501,-0.9569680094718933,0.2550410032272339
10.16,0.09560466557741165,-0.0030625448562204838,0.02942706272006035,-0.10495050251483917,-0.9594384431838989,0.26284900307655334
10.18,0.09773512929677963,0.0001331541279796511,0.03688369318842888,-0.10031449794769287,-0.9547720551490784,0.2650449872016907
10.2,0.10945269465446472,-0.011584409512579441,0.04007939249277115,-0.10031449794769287,-0.9547720551490784,0.2650449872016907
10.22,0.11690932512283325,-0.011584409512579441,0.04434032365679741,-0.10519450902938843,-0.9506240487098694,0.26455700397491455
10.24,0.1222354918718338,-0.009453942999243736,0.04647079110145569,-0.1101050078868866,-0.9552600383758545,0.2697114944458008
10.26,0.12117026001214981,-0.007323476951569319,0.04753602296113968,-0.10690250247716904,-0.9552600383758545,0.2719075083732605
10.28,0.12862688302993774,-0.006258244160562754,0.05179695412516594,-0.10690250247716904,-0.9552600383758545,0.2719075083732605
10.3,0.13821399211883545,-0.005193010903894901,0.05712312087416649,-0.11034899950027466,-0.9523320198059082,0.28215548396110535
10.32,0.14780108630657196,-0.006258244160562754,0.05499265342950821,-0.11034899950027466,-0.9523320198059082,0.28215548396110535
10.34,0.15738818049430847,-0.006258244160562754,0.05712312087416649,-0.11498500406742096,-0.9464760422706604,0.28093549609184265
10.36,0.15951864421367645,-0.005193010903894901,0.05073172226548195,-0.11327699571847916,-0.9452559351921082,0.28386351466178894
10.38,0.15738818049430847,-0.007323476951569319,0.05392742156982422,-0.11815699189901352,-0.9450119733810425,0.2877674996852875
10.4,0.14886631071567535,-0.004127778112888336,0.05499265342950821,-0.11620499938726425,-0.9408639669418335,0.29240351915359497
10.42,0.1424749195575714,0.0001331541279796511,0.05392742156982422,-0.1235249936580658,-0.9430599808692932,0.3068300187587738
10.44,0.14886631071567535,0.00226362026296556,0.05073172226548195,-0.12084099650382996,-0.9411080479621887,0.30902600288391113
10.46,0.14780108630657196,0.00226362026296556,0.05499265342950821,-0.12450099736452103,-0.9440360069274902,0.3114660084247589
10.48,0.14780108630657196,-0.0030625448562204838,0.05499265342950821,-0.13035699725151062,-0.9350079894065857,0.31000199913978577
10.5,0.13821399211883545,-0.001997311832383275,0.05392742156982422,-0.11840099841356277,-0.9293654561042786,0.3163459897041321
10.52,0.13075734674930573,-0.004127778112888336,0.05073172226548195,-0.12376900017261505,-0.9286335110664368,0.3151260018348694
10.54,0.1222354918718338,-0.001997311832383275,0.04327509179711342,-0.12840498983860016,-0.929609477519989,0.3214699923992157
10.56,0.11690932512283325,-0.0030625448562204838,0.03581846132874489,-0.12742900848388672,-0.9300974607467651,0.323696494102478
10.58,0.1115831583738327,-0.007323476951569319,0.03581846132874489,-0.12791700661182404,-0.9313479661941528,0.32662448287010193
10.6,0.10945269465446472,-0.008388710208237171,0.03688369318842888,-0.12401299923658371,-0.9283894896507263,0.327844500541687
10.62,0.09986559301614761,-0.010519175790250301,0.0347532257437706,-0.12840498983860016,-0.9261934757232666,0.33004051446914673
10.64,0.09666989743709564,-0.009453942999243736,0.02942706272006035,-0.13182100653648376,-0.9247294664382935,0.33638447523117065
10.66,0.08921326696872711,-0.006258244160562754,0.02942706272006035,-0.13206499814987183,-0.9191175103187561,0.33516448736190796
10.68,0.08282186836004257,-0.007323476951569319,0.02623136341571808,-0.12547700107097626,-0.921313464641571,0.3407765030860901
10.7,0.07536523789167404,-0.006258244160562754,0.02410089783370495,-0.129381000995636,-0.92546147108078,0.34102049469947815
10.72,0.07003907114267349,-0.006258244160562754,0.02516612969338894,-0.12718500196933746,-0.91862952709198,0.3407765030860901
10.74,0.05938674136996269,-0.004127778112888336,0.02303566411137581,-0.1281609982252121,-0.91862952709198,0.34983497858047485
10.76,0.04979964345693588,-0.004127778112888336,0.015579032711684704,-0.1269410103559494,-0.9161894917488098,0.3459005057811737
10.78,0.04127778112888336,-0.0009320789249613881,0.014513799920678139,-0.12889300286769867,-0.9210695028305054,0.3508110046386719
10.8,0.03488638252019882,-0.004127778112888336,0.014513799920678139,-0.13230900466442108,-0.9152135252952576,0.35495901107788086
10.82,0.03275591507554054,0.00226362026296556,0.013448567129671574,-0.12791700661182404,-0.9183855652809143,0.3505669832229614
10.84,0.022103585302829742,0.004394086077809334,0.011318100616335869,-0.12962500751018524,-0.9166774749755859,0.3463885188102722
10.86,0.011451254598796368,0.006524552125483751,0.008122402243316174,-0.12913700938224792,-0.9159454703330994,0.34907248616218567
10.88,0.00719032296910882,0.010785484686493874,0.005991935729980469,-0.13060098886489868,-0.9164334535598755,0.34858450293540955
10.9,-0.00226362026296556,0.012915950268507004,0.008122402243316174,-0.1327970027923584,-0.9171654582023621,0.3495909869670868
10.92,-0.008655018173158169,0.011850717477500439,0.007057168986648321,-0.13426099717617035,-0.9203374981880188,0.34983497858047485
10.94,-0.012915950268507004,0.017176883295178413,0.007057168986648321,-0.13230900466442108,-0.91862952709198,0.3510550260543823
10.96,-0.017176883295178413,0.019307348877191544,0.0038614696823060513,-0.1315770000219345,-0.9176534414291382,0.34614449739456177
10.98,-0.022503048181533813,0.015046416781842709,0.0027962366584688425,-0.1315770000219345,-0.9176534414291382,0.34614449739456177
11,-0.034220609813928604,0.016111649572849274,-0.0025299284607172012,-0.13011300563812256,-0.9157015085220337,0.34687650203704834
11.02,-0.043807707726955414,0.022503048181533813,-0.004660394508391619,-0.13182100653648376,-0.9244855046272278,0.34321650862693787
11.04,-0.048068638890981674,0.022503048181533813,-0.004660394508391619,-0.13182100653648376,-0.9244855046272278,0.34321650862693787
11.06,-0.048068638890981674,0.020372580736875534,-0.0014646954368799925,-0.13011300563812256,-0.91862952709198,0.34858450293540955
11.08,-0.048068638890981674,0.017176883295178413,-0.0025299284607172012,-0.1315770000219345,-0.9198495149612427,0.33931249380111694
11.1,-0.054460037499666214,0.018242115154862404,-0.00359516148455441,-0.13035699725151062,-0.9183855652809143,0.33467650413513184
11.12,-0.053394805639982224,0.019307348877191544,-0.012117025442421436,-0.13035699725151062,-0.9183855652809143,0.33467650413513184
11.14,-0.057655736804008484,0.021437814459204674,-0.013182258233428001,-0.13328500092029572,-0.9237534999847412,0.3373605012893677
11.16,-0.06830807030200958,0.016111649572849274,-0.013182258233428001,-0.13352900743484497,-0.9257054924964905,0.3388245105743408
11.18,-0.07469946891069412,0.019307348877191544,-0.011051792651414871,-0.1345050036907196,-0.921313464641571,0.3337005078792572
11.2,-0.07469946891069412,0.019307348877191544,-0.015312724746763706,-0.13255299627780914,-0.9235095381736755,0.3341884911060333
11.22,-0.07896039634943008,0.019307348877191544,-0.013182258233428001,-0.129381000995636,-0.9271695613861084,0.3332125246524811
11.24,-0.08002562820911407,0.017176883295178413,-0.014247491955757141,-0.1281609982252121,-0.929609477519989,0.33687248826026917
11.26,-0.08428656309843063,0.017176883295178413,-0.01744319126009941,-0.1310890018939972,-0.9333000183105469,0.3273564875125885
11.28,-0.08961272984743118,0.012915950268507004,-0.0185084231197834,-0.12889300286769867,-0.933788001537323,0.3295525014400482
11.3,-0.09280842542648315,0.011850717477500439,-0.0185084231197834,-0.1269410103559494,-0.9340320229530334,0.32760047912597656
11.32,-0.09280842542648315,0.010785484686493874,-0.02276935614645481,-0.12498899549245834,-0.9261934757232666,0.323696494102478
11.34,-0.0981345921754837,0.011850717477500439,-0.02489982172846794,-0.12498899549245834,-0.9261934757232666,0.323696494102478
11.36,-0.10665645450353622,0.015046416781842709,-0.02489982172846794,-0.12889300286769867,-0.9281455278396606,0.3197620213031769
11.38,-0.11411308497190475,0.013981183059513569,-0.02703028731048107,-0.13084499537944794,-0.9320799708366394,0.3178099989891052
11.4,-0.11411308497190475,0.012915950268507004,-0.02809552103281021,-0.13060098886489868,-0.9364719390869141,0.32049399614334106
11.42,-0.11624355614185333,0.011850717477500439,-0.02703028731048107,-0.12840498983860016,-0.9350079894065857,0.3163459897041321
11.44,-0.11517832428216934,0.012915950268507004,-0.02703028731048107,-0.12913700938224792,-0.9396439790725708,0.3073180019855499
11.46,-0.1205044835805893,0.013981183059513569,-0.02703028731048107,-0.12913700938224792,-0.9396439790725708,0.3073180019855499
11.48,-0.12476541846990585,0.022503048181533813,-0.02596505545079708,-0.1235249936580658,-0.9359839558601379,0.31244200468063354
11.5,-0.12476541846990585,0.020372580736875534,-0.02596505545079708,-0.12450099736452103,-0.9464760422706604,0.29902198910713196
11.52,-0.12263495475053787,0.025698747485876083,-0.02703028731048107,-0.12425700575113297,-0.94623202085495,0.29362350702285767
11.54,-0.11624355614185333,0.025698747485876083,-0.02809552103281021,-0.12425700575113297,-0.94623202085495,0.29362350702285767
11.56,-0.11198262125253677,0.027829213067889214,-0.02596505545079708,-0.12279299646615982,-0.9469640254974365,0.29240351915359497
11.58,-0.10346075892448425,0.026763979345560074,-0.0238345880061388,-0.12279299646615982,-0.9469640254974365,0.29240351915359497
11.6,-0.09174319356679916,0.023568280041217804,-0.02063889056444168,-0.11913299560546875,-0.9450119733810425,0.29142749309539795
11.62,-0.0874822586774826,0.026763979345560074,-0.02276935614645481,-0.12376900017261505,-0.9474520087242126,0.2848395109176636
11.64,-0.08854749798774719,0.026763979345560074,-0.01957365684211254,-0.11620499938726425,-0.9467200040817261,0.284107506275177
11.66,-0.08322133123874664,0.03209014609456062,-0.015312724746763706,-0.11864499747753143,-0.9506240487098694,0.28020352125167847
11.68,-0.07256899774074554,0.031024912372231483,-0.015312724746763706,-0.1235249936580658,-0.9508680105209351,0.27873948216438293
11.7,-0.067242830991745,0.028894444927573204,-0.015312724746763706,-0.12132899463176727,-0.9516000151634216,0.2741034924983978
11.72,-0.05659050494432449,0.022503048181533813,-0.009986559860408306,-0.11449700593948364,-0.9518439769744873,0.27629950642585754
11.74,-0.050199106335639954,0.020372580736875534,-0.011051792651414871,-0.1223049983382225,-0.9547720551490784,0.2719075083732605
11.76,-0.036351077258586884,0.018242115154862404,-0.007856093347072601,-0.12279299646615982,-0.9528200030326843,0.2748354971408844
11.78,-0.028894444927573204,0.015046416781842709,-0.0025299284607172012,-0.12035300582647324,-0.9552600383758545,0.27166351675987244
11.8,-0.016111649572849274,0.012915950268507004,0.000665770610794425,-0.11620499938726425,-0.9508680105209351,0.2689794898033142
11.82,-0.006524552125483751,0.009720250964164734,0.004926702938973904,-0.11620499938726425,-0.9508680105209351,0.2689794898033142
11.84,0.0050598569214344025,0.010785484686493874,0.007057168986648321,-0.11669300496578217,-0.9545280337333679,0.26922348141670227
11.86,0.014646953903138638,0.0033288532868027687,0.004926702938973904,-0.11815699189901352,-0.9472079873085022,0.26824751496315
11.88,0.022103585302829742,-0.0009320789249613881,0.0038614696823060513,-0.12303700298070908,-0.9520879983901978,0.27166351675987244
11.9,0.027429750189185143,-0.0009320789249613881,0.009187635034322739,-0.1252330094575882,-0.9496479630470276,0.2741034924983978
11.92,0.03914731368422508,0.0011983871227130294,0.010252867825329304,-0.11742500215768814,-0.9540400505065918,0.2753235101699829
11.94,0.04660394415259361,-0.0030625448562204838,0.012383334338665009,-0.11791300028562546,-0.9496479630470276,0.2760555148124695
11.96,0.0583215095102787,-0.007323476951569319,0.013448567129671574,-0.11986500769853592,-0.9523320198059082,0.27678748965263367
11.98,0.06577813625335693,-0.006258244160562754,0.01664426550269127,-0.12425700575113297,-0.9469640254974365,0.2694675028324127
12,0.07323476672172546,-0.007323476951569319,0.013448567129671574,-0.12596499919891357,-0.9501360654830933,0.2748354971408844
12.02,0.07856093347072601,-0.007323476951569319,0.014513799920678139,-0.12206100672483444,-0.94623202085495,0.2823995053768158
12.04,0.08175663650035858,-0.008388710208237171,0.01664426550269127,-0.12425700575113297,-0.9486719965934753,0.2853274941444397
12.06,0.09347419440746307,-0.010519175790250301,0.015579032711684704,-0.12425700575113297,-0.9459880590438843,0.28727948665618896
12.08,0.09986559301614761,-0.014780107885599136,0.02090519852936268,-0.12474500387907028,-0.9452559351921082,0.2921594977378845
12.1,0.10199606418609619,-0.012649642303586006,0.01983996480703354,-0.12132899463176727,-0.9467200040817261,0.2928915023803711
12.12,0.11051792651414871,-0.015845341607928276,0.01877473294734955,-0.12132899463176727,-0.9467200040817261,0.2928915023803711
12.14,0.1126483902335167,-0.014780107885599136,0.02197043038904667,-0.12206100672483444,-0.9476959705352783,0.29313552379608154
12.16,0.1126483902335167,-0.014780107885599136,0.02090519852936268,-0.12181700021028519,-0.944767951965332,0.29731401801109314
12.18,0.11584409326314926,-0.014780107885599136,0.02303566411137581,-0.12328100204467773,-0.9433040022850037,0.29585000872612
12.2,0.12117026001214981,-0.015845341607928276,0.01983996480703354,-0.12425700575113297,-0.9411080479621887,0.3051219880580902
12.22,0.12117026001214981,-0.019041040912270546,0.02197043038904667,-0.12425700575113297,-0.9374480247497559,0.30024200677871704
12.24,0.12543119490146637,-0.015845341607928276,0.01877473294734955,-0.12498899549245834,-0.9389119744300842,0.3029260039329529
12.26,0.12543119490146637,-0.013714875094592571,0.01877473294734955,-0.1269410103559494,-0.9403759837150574,0.3058539927005768
12.28,0.12436595559120178,-0.017975807189941406,0.01770949922502041,-0.12669700384140015,-0.937936007976532,0.3151260018348694
12.3,0.1222354918718338,-0.016910573467612267,0.01770949922502041,-0.12718500196933746,-0.9313479661941528,0.31878599524497986
12.32,0.12330072373151779,-0.014780107885599136,0.02090519852936268,-0.12742900848388672,-0.9300974607467651,0.3227204978466034
12.34,0.11797455698251724,-0.012649642303586006,0.01770949922502041,-0.12767300009727478,-0.9320799708366394,0.3207380175590515
12.36,0.11690932512283325,-0.020106272771954536,0.01770949922502041,-0.13182100653648376,-0.9283894896507263,0.32930850982666016
12.38,0.11584409326314926,-0.019041040912270546,0.014513799920678139,-0.1264529973268509,-0.9259494543075562,0.3285765051841736
12.4,0.10945269465446472,-0.019041040912270546,0.011318100616335869,-0.1269410103559494,-0.926925539970398,0.3302845060825348
12.42,0.1009308323264122,-0.021171506494283676,0.009187635034322739,-0.12718500196933746,-0.9222895503044128,0.3332125246524811
12.44,0.09880036115646362,-0.022236740216612816,0.005991935729980469,-0.129381000995636,-0.9232655167579651,0.33931249380111694
12.46,0.09347419440746307,-0.021171506494283676,0.008122402243316174,-0.1269410103559494,-0.9205814599990845,0.33858051896095276
12.48,0.08814803510904312,-0.021171506494283676,0.007057168986648321,-0.1223049983382225,-0.9210695028305054,0.3417524993419647
12.5,0.07643046975135803,-0.021171506494283676,0.007057168986648321,-0.1252330094575882,-0.9176534414291382,0.3412644863128662
12.52,0.06471290439367294,-0.021171506494283676,0.0038614696823060513,-0.12108500301837921,-0.9171654582023621,0.3463885188102722
12.54,0.05938674136996269,-0.021171506494283676,-0.0014646954368799925,-0.12401299923658371,-0.9193615317344666,0.3441925048828125
12.56,0.04873441159725189,-0.020106272771954536,-0.0014646954368799925,-0.12206100672483444,-0.9188735485076904,0.3500789999961853
12.58,0.04021254554390907,-0.020106272771954536,-0.0003994623839389533,-0.12376900017261505,-0.921313464641571,0.35447099804878235
12.6,0.04021254554390907,-0.019041040912270546,-0.0003994623839389533,-0.12181700021028519,-0.9174094796180725,0.3495909869670868
12.62,0.028494983911514282,-0.015845341607928276,-0.0014646954368799925,-0.12328100204467773,-0.91862952709198,0.34983497858047485
12.64,0.022103585302829742,-0.010519175790250301,-0.00359516148455441,-0.12254900485277176,-0.9154574871063232,0.3508110046386719
12.66,0.011451254598796368,-0.010519175790250301,-0.005725627299398184,-0.1223049983382225,-0.9181415438652039,0.3525190055370331
12.68,0.002929390873759985,-0.004127778112888336,-0.004660394508391619,-0.12303700298070908,-0.9178975224494934,0.3525190055370331
12.7,-0.006524552125483751,0.0011983871227130294,-0.0025299284607172012,-0.12206100672483444,-0.9147255420684814,0.3571549952030182
12.72,-0.013981183059513569,0.0011983871227130294,-0.0025299284607172012,-0.1223049983382225,-0.9152135252952576,0.3512990176677704
12.74,-0.022503048181533813,0.00226362026296556,-0.009986559860408306,-0.12450099736452103,-0.9149695038795471,0.35666701197624207
12.76,-0.034220609813928604,0.005459319334477186,-0.004660394508391619,-0.12181700021028519,-0.9183855652809143,0.35032299160957336
12.78,-0.040612008422613144,0.009720250964164734,-0.005725627299398184,-0.12474500387907028,-0.9178975224494934,0.3530069887638092
12.8,-0.054460037499666214,0.009720250964164734,-0.008921326138079166,-0.11986500769853592,-0.9181415438652039,0.3534950017929077
12.82,-0.066177599132061,0.011850717477500439,-0.008921326138079166,-0.12157300114631653,-0.9157015085220337,0.34809648990631104
12.84,-0.08002562820911407,0.016111649572849274,-0.008921326138079166,-0.11864499747753143,-0.9154574871063232,0.34858450293540955
12.86,-0.0874822586774826,0.017176883295178413,-0.008921326138079166,-0.12206100672483444,-0.9171654582023621,0.3483405113220215
12.88,-0.10133028775453568,0.023568280041217804,-0.008921326138079166,-0.1235249936580658,-0.9188735485076904,0.3449244797229767
12.9,-0.11624355614185333,0.023568280041217804,-0.013182258233428001,-0.1235249936580658,-0.9188735485076904,0.3449244797229767
12.92,-0.13648298382759094,0.029959678649902344,-0.02276935614645481,-0.12108500301837921,-0.921313464641571,0.33272451162338257
12.94,-0.15565717220306396,0.03848154470324516,-0.02703028731048107,-0.12108500301837921,-0.921313464641571,0.33272451162338257
12.96,-0.172700896859169,0.047003407031297684,-0.03022598661482334,-0.11888900399208069,-0.9239975214004517,0.3349204957485199
12.98,-0.1940055638551712,0.06298190355300903,-0.03129122033715248,-0.12376900017261505,-0.9305854439735413,0.3319924771785736
13,-0.2163754552602768,0.08322133123874664,-0.03235645219683647,-0.11888900399208069,-0.9303414821624756,0.33174848556518555
13.02,-0.24300628900527954,0.08961272984743118,-0.03661738336086273,-0.12084099650382996,-0.9315919876098633,0.3146379888057709
13.04,-0.2579195499420166,0.09600412845611572,-0.04194355010986328,-0.1205969974398613,-0.9325680732727051,0.3151260018348694
13.06,-0.27283281087875366,0.0768299326300621,-0.04513924941420555,-0.12474500387907028,-0.9403759837150574,0.3097579777240753
13.08,-0.29520270228385925,0.07043853402137756,-0.04407401755452156,-0.1235249936580658,-0.9386680126190186,0.30146199464797974
13.1,-0.3133116662502289,0.066177599132061,-0.03022598661482334,-0.12376900017261505,-0.9367160201072693,0.30365800857543945
13.12,-0.35698622465133667,0.051264338195323944,-0.02170412242412567,-0.12596499919891357,-0.9364719390869141,0.2858155071735382
13.14,-0.40172600746154785,0.031024912372231483,-0.04194355010986328,-0.1269410103559494,-0.9408639669418335,0.2858155071735382
13.16,-0.4485962688922882,0.00226362026296556,-0.07816147059202194,-0.1327970027923584,-0.9354959726333618,0.26922348141670227
13.18,-0.4688356816768646,-0.025432437658309937,-0.10266183316707611,-0.1327970027923584,-0.9352520108222961,0.2589449882507324
13.2,-0.45711812376976013,-0.08082455396652222,-0.12183602899312973,-0.12206100672483444,-0.9325680732727051,0.24381698668003082
13.22,-0.38255181908607483,-0.055258963257074356,-0.12929265201091766,-0.1088544949889183,-0.948915958404541,0.24406100809574127
13.24,-0.3005288541316986,0.06404713541269302,-0.11331415921449661,-0.09275049716234207,-1.0329434871673584,0.2684915065765381
13.26,-0.3857475221157074,0.028894444927573204,-0.1346188187599182,-0.08274649828672409,-0.955016016960144,0.21841049194335938
13.28,-0.4613790512084961,0.04913387447595596,-0.14420592784881592,-0.09519050270318985,-0.9200934767723083,0.1983720064163208
13.3,-0.5402063131332397,0.066177599132061,-0.12822742760181427,-0.09104250371456146,-0.9161894917488098,0.20227600634098053
13.32,-0.5945332050323486,0.09174319356679916,-0.0930747389793396,-0.09714249521493912,-0.9281455278396606,0.1954440027475357
13.34,-0.6434007287025452,0.12143656611442566,-0.06537867337465286,-0.09226249903440475,-0.9437919855117798,0.18836799263954163
13.36,-0.6998580694198608,0.17576344311237335,-0.04940018057823181,-0.08957850188016891,-0.9591944813728333,0.17052549123764038
13.38,-0.7595111727714539,0.2343512624502182,-0.03768261894583702,-0.08640650659799576,-0.9774945378303528,0.1610095053911209
13.4,-0.8074466586112976,0.275895357131958,-0.03448691964149475,-0.09421449899673462,-0.9823745489120483,0.14316700398921967
13.42,-0.8628387451171875,0.3078523576259613,-0.0504654161632061,-0.08518649637699127,-0.9672464728355408,0.12190849334001541
13.44,-0.9523183107376099,0.3408745527267456,-0.05472634732723236,-0.08543050289154053,-0.9569680094718933,0.08820600062608719
13.46,-1.033276081085205,0.36963585019111633,-0.0611177459359169,-0.10104650259017944,-0.9677344560623169,0.07795799523591995
13.48,-1.117429494857788,0.38881006836891174,-0.08561810106039047,-0.09567850083112717,-0.961390495300293,0.06572750210762024
13.5,-1.223819613456726,0.37602725625038147,-0.09520520269870758,-0.10763449966907501,-0.9687105417251587,0.03568499907851219
13.52,-1.3058425188064575,0.3856143653392792,-0.11118369549512863,-0.09738650172948837,-0.9867969751358032,0.007350499741733074
13.54,-1.3665608167648315,0.3824186623096466,-0.10905323177576065,-0.09543450176715851,-0.9740785360336304,-0.014640000648796558
13.56,-1.4837363958358765,0.4037233293056488,-0.10798799991607666,-0.11547300964593887,-0.966514527797699,-0.05834650248289108
13.58,-1.6371300220489502,0.48468104004859924,-0.1346188187599182,-0.10446249693632126,-0.9564799666404724,-0.10793950408697128
13.6,-1.8298040628433228,0.6945319175720215,-0.18148908019065857,-0.09982649981975555,-0.9476959705352783,-0.12090200930833817
13.62,-1.9768061637878418,0.6913362145423889,-0.18681524693965912,-0.07978799939155579,-0.9459880590438843,-0.18391500413417816
13.64,-2.167482852935791,0.9958597421646118,-0.2102503627538681,-0.08640650659799576,-0.9249734878540039,-0.19269900023937225
13.66,-2.298506498336792,1.0704259872436523,-0.2091851383447647,-0.04681750014424324,-0.9298534989356995,-0.24570800364017487
13.68,-2.4379189014434814,1.1897320747375488,-0.22409839928150177,-0.03339749947190285,-0.9183855652809143,-0.2730664908885956
13.7,-2.6062257289886475,1.0331429243087769,0.08162347972393036,0.013023500330746174,-0.8924909830093384,-0.35489800572395325
13.72,-2.5646817684173584,1.1854711771011353,-0.3082517981529236,0.20184899866580963,-0.8495164513587952,-0.380792498588562
13.74,-2.4528322219848633,1.24086332321167,-0.40718531608581543,0.08164849877357483,-0.8956630229949951,-0.4714384973049164
13.76,-2.350703001022339,1.0757522583007812,-0.4742949903011322,0.07213249802589417,-0.8282579779624939,-0.5742539763450623
13.78,-2.2356576919555664,0.8456618785858154,-0.47003406286239624,0.08631499856710434,-0.7972394824028015,-0.6429095268249512
13.8,-2.1184821128845215,0.7625737190246582,-0.4529903531074524,0.1319735050201416,-0.7617985010147095,-0.6900624632835388
13.82,-1.9704147577285767,0.6391398310661316,-0.47855594754219055,0.12026149779558182,-0.7056174874305725,-0.7220569849014282
13.84,-1.9011746644973755,0.49426811933517456,-0.47003406286239624,0.1424959897994995,-0.7043974995613098,-0.7479515075683594
13.86,-1.8096977472305298,0.4175713360309601,-0.42635950446128845,0.16521848738193512,-0.6440684795379639,-0.7711619734764099
13.88,-1.701043963432312,0.3813534080982208,-0.40505486726760864,0.16985450685024261,-0.6176860332489014,-0.7872660160064697
13.9,-1.4752146005630493,0.3376788794994354,-0.3817528784275055,0.18010249733924866,-0.5688250064849854,-0.8378349542617798
13.92,-1.3260819911956787,0.2641777992248535,-0.39440253376960754,0.21551299095153809,-0.5358545184135437,-0.8551895022392273
13.94,-1.2154308557510376,0.256721168756485,-0.370035320520401,0.19696900248527527,-0.5278024673461914,-0.8456429839134216
13.96,-1.0396674871444702,0.28015628457069397,-0.22622886300086975,0.1979449987411499,-0.5158159732818604,-0.8258790373802185
13.98,-0.873491108417511,0.2545906901359558,-0.09413997083902359,0.20819298923015594,-0.5114240050315857,-0.8742214441299438
14,-0.7371412515640259,0.17576344311237335,-0.13781452178955078,0.22798749804496765,-0.4786975085735321,-0.8703175187110901
14.02,-0.5220973491668701,0.1384802907705307,-0.05685681104660034,0.24238350987434387,-0.4169045090675354,-0.8693414926528931
14.04,-0.319703072309494,0.051264338195323944,-0.015312724746763706,0.25656598806381226,-0.4315445125102997,-0.8869400024414062
14.06,-0.21744069457054138,0.07469946891069412,-0.012117025442421436,0.22164349257946014,-0.44865500926971436,-0.8773934841156006
14.08,-0.15459194779396057,0.07363422960042953,0.02942706272006035,0.16323600709438324,-0.4745495021343231,-0.8571414351463318
14.1,-0.0991998240351677,0.060851436108350754,0.05073172226548195,0.21722100675106049,-0.4261764883995056,-0.8930399417877197
14.12,-0.048068638890981674,0.10545806586742401,0.04860125854611397,0.21551299095153809,-0.4278844892978668,-0.8769055008888245
14.14,-0.007589785382151604,-0.0030625448562204838,0.03901416063308716,0.266325980424881,-0.3831714987754822,-0.9064905047416687
14.16,0.1328878253698349,-0.041410934180021286,0.10292813926935196,0.248758003115654,-0.41126200556755066,-0.879863977432251
14.18,0.18295377492904663,-0.06484606117010117,0.1412765234708786,0.2055090069770813,-0.46747350692749023,-0.8571414351463318
14.2,0.272433340549469,-0.06804175674915314,0.16684211790561676,0.2231075018644333,-0.4308124780654907,-0.8737334609031677
14.22,0.22662831842899323,-0.07443315535783768,0.11677616834640503,0.20184899866580963,-0.45499899983406067,-0.8788575530052185
14.24,0.3054555654525757,-0.1031944528222084,0.17962491512298584,0.20746099948883057,-0.4303244948387146,-0.852261483669281
14.26,0.38108712434768677,-0.08721595257520676,0.24234052002429962,0.18669049441814423,-0.46869349479675293,-0.8678774833679199
14.28,0.4343487620353699,-0.14047759771347046,0.2444709837436676,0.21871550381183624,-0.4506070017814636,-0.877637505531311
14.3,0.5302197337150574,-0.19693495333194733,0.26257994771003723,0.21871550381183624,-0.4506070017814636,-0.877637505531311
14.32,0.5632419586181641,-0.20439158380031586,0.31690680980682373,0.18888649344444275,-0.5080080032348633,-0.8600695133209229
14.34,0.6419360637664795,-0.24700090289115906,0.3328853249549866,0.1920889914035797,-0.5138640403747559,-0.857385516166687
14.36,0.6962629556655884,-0.29067546129226685,0.37869033217430115,0.1903505027294159,-0.5358545184135437,-0.8588495254516602
14.38,0.7165023684501648,-0.292805939912796,0.42129966616630554,0.17644250392913818,-0.5487865209579468,-0.8453989624977112
14.4,0.7814815640449524,-0.2938711643218994,0.44047385454177856,0.16497449576854706,-0.5576009750366211,-0.8285629749298096
14.42,0.9135704636573792,-0.339676171541214,0.47456130385398865,0.15323199331760406,-0.5837395191192627,-0.8324669599533081
14.44,1.0872035026550293,-0.36524176597595215,0.5235620141029358,0.15103599429130554,-0.6013075113296509,-0.832955002784729
14.46,1.2617684602737427,-0.3886769115924835,0.582149863243103,0.15103599429130554,-0.6013075113296509,-0.832955002784729
14.48,1.4396624565124512,-0.5419372916221619,0.6077154278755188,0.0987589955329895,-0.6555364727973938,-0.7899500131607056
14.5,1.4929240942001343,-0.5920032262802124,0.6141068339347839,0.0987589955329895,-0.6555364727973938,-0.7899500131607056
14.52,1.503576397895813,-0.6612433791160583,0.6034545302391052,0.08851099759340286,-0.6736230254173279,-0.7623475193977356
14.54,1.4971849918365479,-0.716635525226593,0.5480623841285706,0.06578850001096725,-0.6841149926185608,-0.7479515075683594
14.56,1.5216853618621826,-0.7102441191673279,0.5704323053359985,0.03306199982762337,-0.6978094577789307,-0.7196170091629028
14.58,1.5206201076507568,-0.678287148475647,0.568301796913147,0.024979500100016594,-0.7280960083007812,-0.6646559834480286
14.6,1.5067721605300903,-0.6623086333274841,0.558714747428894,0.024979500100016594,-0.7280960083007812,-0.6646559834480286
14.62,1.4737498760223389,-0.6207645535469055,0.5469971299171448,-0.03510550037026405,-0.7711009979248047,-0.593560516834259
14.64,1.3970531225204468,-0.7326140403747559,0.5235620141029358,-0.05685199797153473,-0.7925730347633362,-0.5346955060958862
14.66,1.4439233541488647,-0.5589810013771057,0.5331491231918335,-0.05685199797153473,-0.7925730347633362,-0.5346955060958862
14.68,1.4982502460479736,-0.5461982488632202,0.5075835585594177,-0.07588399946689606,-0.818711519241333,-0.549823522567749
14.7,1.5089025497436523,-0.5781552195549011,0.4788222312927246,-0.09885050356388092,-0.8443620204925537,-0.5000170469284058
14.72,1.5163592100143433,-0.586677074432373,0.42982152104377747,-0.11693699657917023,-0.8746484518051147,-0.4589639902114868
14.74,1.4822717905044556,-0.6303516626358032,0.39892977476119995,-0.14722350239753723,-0.9078934788703918,-0.4037590026855469
14.76,1.4247491359710693,-0.6750914454460144,0.34353765845298767,-0.1584475040435791,-0.9120414853096008,-0.35270199179649353
14.78,1.386400818824768,-0.6601781845092773,0.264710396528244,-0.17092199623584747,-0.9237534999847412,-0.3075315058231354
14.8,1.349117636680603,-0.6378082633018494,0.20838621258735657,-0.1765339970588684,-0.9276575446128845,-0.27968502044677734
14.82,1.297986388206482,-0.6441996693611145,0.13808083534240723,-0.18043801188468933,-0.9232655167579651,-0.23668000102043152
14.84,1.2447247505187988,-0.6900047063827515,0.07523208111524582,-0.1941325068473816,-0.9139935374259949,-0.2122495025396347
14.86,1.1990529298782349,-0.6612433791160583,0.03901416063308716,-0.19608449935913086,-0.9188735485076904,-0.17976699769496918
14.88,1.1734873056411743,-0.6079817414283752,0.02516612969338894,-0.20486849546432495,-0.9303414821624756,-0.14188599586486816
14.9,1.1202256679534912,-0.5515244007110596,0.015579032711684704,-0.2063324898481369,-0.9328120350837708,-0.11748600006103516
14.92,1.060572624206543,-0.45152565836906433,0.01664426550269127,-0.2214910089969635,-0.931835949420929,-0.07814100384712219
14.94,0.999854326248169,-0.38548120856285095,0.02410089783370495,-0.2214910089969635,-0.9352520108222961,-0.05859050154685974
14.96,0.9370055794715881,-0.3588503897190094,0.01983996480703354,-0.2244189828634262,-0.9415960311889648,-0.035654500126838684
14.98,0.8794830441474915,-0.33328479528427124,0.01770949922502041,-0.22563901543617249,-0.9401319622993469,-0.015860000625252724
15,0.8443303108215332,-0.3055887222290039,0.007057168986648321,-0.2244189828634262,-0.94623202085495,0.018818499520421028
15.02,0.783612072467804,-0.2640446424484253,0.01770949922502041,-0.23466700315475464,-0.9401319622993469,0.04129699990153313
15.04,0.7324808835983276,-0.24913136661052704,0.01877473294734955,-0.22197899222373962,-0.9345200061798096,0.05230749770998955
15.06,0.6611102223396301,-0.23315288126468658,0.004926702938973904,-0.22197899222373962,-0.9345200061798096,0.05230749770998955
15.08,0.6058512926101685,-0.19373925030231476,-0.009986559860408306,-0.21905101835727692,-0.9257054924964905,0.08332599699497223
15.1,0.5387415885925293,-0.16284750401973724,-0.03768261894583702,-0.21905101835727692,-0.9300974607467651,0.10531650483608246
15.12,0.4439358711242676,-0.12769481539726257,-0.06005251035094261,-0.22466300427913666,-0.9354959726333618,0.11776050180196762
15.14,0.35232582688331604,-0.1042596846818924,-0.04833494871854782,-0.22051499783992767,-0.9418400526046753,0.1272764950990677
15.16,0.24793298542499542,-0.06910699605941772,-0.03874785080552101,-0.22051499783992767,-0.9418400526046753,0.1272764950990677
15.18,0.14886631071567535,-0.040345702320337296,-0.03555215150117874,-0.20316050946712494,-0.9340320229530334,0.133651003241539
15.2,0.06364767253398895,-0.005193010903894901,-0.03768261894583702,-0.20364850759506226,-0.9310735464096069,0.1407269984483719
15.22,-0.016111649572849274,0.019307348877191544,-0.03768261894583702,-0.19974449276924133,-0.9335440397262573,0.1248365044593811
15.24,-0.0768299326300621,0.040612008422613144,-0.0504654161632061,-0.2004764974117279,-0.9266815185546875,0.12825249135494232
15.26,-0.11411308497190475,0.058720968663692474,-0.05685681104660034,-0.2004764974117279,-0.9266815185546875,0.12825249135494232
15.28,-0.151396244764328,0.06830807030200958,-0.06218297779560089,-0.2004764974117279,-0.9298534989356995,0.13218699395656586
15.3,-0.20785360038280487,0.08109086751937866,-0.06963960826396942,-0.20486849546432495,-0.9362279772758484,0.1248365044593811
15.32,-0.2696371078491211,0.08641702681779861,-0.07496577501296997,-0.20486849546432495,-0.9362279772758484,0.1248365044593811
15.34,-0.34633389115333557,0.0991998240351677,-0.08135717362165451,-0.19388850033283234,-0.9376920461654663,0.10946449637413025
15.36,-0.40172600746154785,0.1065233051776886,-0.0930747389793396,-0.18897800147533417,-0.9350079894065857,0.09894200414419174
15.38,-0.47735753655433655,0.11184946447610855,-0.10798799991607666,-0.18897800147533417,-0.9350079894065857,0.09894200414419174
15.4,-0.5444672107696533,0.1288931965827942,-0.13035789132118225,-0.19242450594902039,-0.9367160201072693,0.08503399789333344
15.42,-0.6073159575462341,0.16298064589500427,-0.15272778272628784,-0.1870260089635849,-0.9415960311889648,0.05938350409269333
15.44,-0.6721620559692383,0.19600287079811096,-0.16444534063339233,-0.1929125040769577,-0.9455000758171082,0.040320999920368195
15.46,-0.7392717003822327,0.20985090732574463,-0.17403244972229004,-0.19388850033283234,-0.9479399919509888,0.026169002056121826
15.48,-0.8244903683662415,0.23222079873085022,-0.1889457106590271,-0.19388850033283234,-0.9479399919509888,0.026169002056121826
15.5,-0.912904679775238,0.24180789291858673,-0.20705467462539673,-0.19068600237369537,-0.9472079873085022,-0.008051999844610691
15.52,-0.9917319416999817,0.2577863931655884,-0.22303315997123718,-0.18751400709152222,-0.9440360069274902,-0.02635199949145317
15.54,-1.087602972984314,0.26204732060432434,-0.2432725876569748,-0.18165799975395203,-0.9357399940490723,-0.05029449984431267
15.56,-1.187734842300415,0.27163442969322205,-0.262446790933609,-0.17336200177669525,-0.9411080479621887,-0.07838500291109085
15.58,-1.2856030464172363,0.31530898809432983,-0.2762948274612427,-0.15771549940109253,-0.9457440376281738,-0.10964750498533249
15.6,-1.432605266571045,0.3824186623096466,-0.30292564630508423,-0.1416115015745163,-0.9430599808692932,-0.13749399781227112
15.62,-1.5891945362091064,0.4601806700229645,-0.3167736828327179,-0.13917149603366852,-0.9445239901542664,-0.1697629988193512
15.64,-1.7212834358215332,0.5422036051750183,-0.33168694376945496,-0.1205969974398613,-0.9479399919509888,-0.21127350628376007
15.66,-1.8777395486831665,0.6742925047874451,-0.34553495049476624,-0.11034899950027466,-0.94623202085495,-0.24644000828266144
15.68,-2.0290026664733887,0.811574399471283,-0.3721657991409302,-0.09689849615097046,-0.9520879983901978,-0.27599450945854187
15.7,-2.228201150894165,0.9788159728050232,-0.3711005449295044,-0.06563600152730942,-0.9171654582023621,-0.32290351390838623
15.72,-2.428464889526367,1.2046453952789307,-0.39227205514907837,-0.04315749928355217,-0.8859030604362488,-0.3570939898490906
15.74,-2.6339218616485596,1.2951902151107788,-0.26777294278144836,-0.1264529973268509,-0.8565924763679504,-0.4489600360393524
15.76,-2.879990577697754,1.7701510190963745,-0.43807709217071533,0.022539500147104263,-0.8021195530891418,-0.39692699909210205
15.78,-3.011014223098755,2.2227418422698975,-0.5147738456726074,0.008387499488890171,-0.7552104592323303,-0.513437032699585
15.8,-3.2388410568237305,2.698767900466919,-0.6191666722297668,0.033549997955560684,-0.7132120132446289,-0.5989285111427307
15.82,-3.395430326461792,2.9352495670318604,-0.7310161590576172,0.11782149970531464,-0.6513884663581848,-0.6978704929351807
15.84,-3.366668939590454,2.4368536472320557,-0.9408670663833618,0.2702299952507019,-0.5693129897117615,-0.8234084844589233
15.86,-2.954556941986084,1.928870677947998,-1.0184959173202515,0.2702299952507019,-0.5693129897117615,-0.8234084844589233
15.88,-2.529528856277466,1.4580377340316772,-1.0323439836502075,0.32714298367500305,-0.6062179803848267,-0.8732454776763916
15.9,-2.3379201889038086,1.37494957447052,-1.1101059913635254,0.3530375063419342,-0.5238984823226929,-0.8783694505691528
15.92,-2.2164835929870605,1.2973207235336304,-1.1580414772033691,0.4114450216293335,-0.34532099962234497,-0.8695854544639587
15.94,-2.112090826034546,1.3069077730178833,-1.1623023748397827,0.4243770241737366,-0.2722734808921814,-0.9150304794311523
15.96,-1.9171531200408936,1.0672303438186646,-1.1814765930175781,0.4243770241737366,-0.2722734808921814,-0.9150304794311523
15.98,-1.7724145650863647,0.8200962543487549,-1.212368369102478,0.45075950026512146,-0.24784299731254578,-0.9880474805831909
16,-1.5188891887664795,0.4356802999973297,-1.2421948909759521,0.5374709963798523,-0.22588300704956055,-0.9550769925117493
16.02,-1.2611027956008911,0.0981345921754837,-1.188933253288269,0.5113325119018555,-0.12181700021028519,-0.8857200145721436
16.04,-1.1099728345870972,-0.10958584398031235,-1.1101059913635254,0.5372270345687866,-0.07295600324869156,-0.8705615401268005
16.06,-1.0258194208145142,-0.1894783228635788,-0.9525846242904663,0.5005965232849121,-0.0319334976375103,-0.8478390574455261
16.08,-1.005579948425293,-0.3173062801361084,-0.8716269135475159,0.517432451248169,-0.04022950306534767,-0.8815720081329346
16.1,-0.9725577235221863,-0.38654643297195435,-0.7693645358085632,0.517432451248169,-0.04022950306534767,-0.8815720081329346
16.12,-0.9299484491348267,-0.4856131076812744,-0.6734935641288757,0.4873899817466736,0.019611500203609467,-0.8832799792289734
16.14,-0.8937305212020874,-0.4685693681240082,-0.6212971806526184,0.4756779968738556,0.049653999507427216,-0.8830360174179077
16.16,-0.8543168902397156,-0.5238283276557922,-0.5488613247871399,0.4527114927768707,0.09534300118684769,-0.8949919939041138
16.18,-0.7509892582893372,-0.39613354206085205,-0.4934692084789276,0.4544195234775543,0.11074550449848175,-0.9128345251083374
16.2,-0.5796199440956116,-0.32263246178627014,-0.37642672657966614,0.3479135036468506,0.1916009932756424,-0.8556774854660034
16.22,-0.5007926821708679,-0.292805939912796,-0.3306216895580292,0.4539315104484558,0.14347200095653534,-0.9160064458847046
16.24,-0.43261775374412537,-0.26937079429626465,-0.2528596818447113,0.4527114927768707,0.16619449853897095,-0.9103944897651672
16.26,-0.3516600430011749,-0.21930484473705292,-0.19320663809776306,0.43047696352005005,0.1722945123910904,-0.8974319696426392
16.28,0.015712186694145203,0.11184946447610855,0.04966649040579796,-0.06490399688482285,0.20794899761676788,0.9578220248222351
16.3,0.011451254598796368,-0.07336792349815369,0.09760197252035141,-0.06490399688482285,0.20794899761676788,0.9578220248222351
16.32,0.022103585302829742,-0.1777607649564743,0.06564498692750931,-0.06954000145196915,0.24067549407482147,0.9761219620704651
16.34,-0.04593817517161369,-0.4451342523097992,0.06990591436624527,-0.07393199950456619,0.2282315194606781,0.9541620016098022
16.36,-0.07043853402137756,-0.5238283276557922,-0.00359516148455441,0.009119500406086445,0.270748496055603,0.9536740183830261
16.38,-0.23341917991638184,-0.6516563296318054,0.04753602296113968,0.009119500406086445,0.270748496055603,0.9536740183830261
16.4,-0.5093145370483398,-0.4994611442089081,0.1934729516506195,-0.034861501306295395,0.23140348494052887,0.9768844842910767
16.42,-0.5455324649810791,-0.13728190958499908,0.22955772280693054,0.06164050102233887,0.22701148688793182,0.9854245185852051
16.44,-0.4411396384239197,0.26311254501342773,0.2785584330558777,-0.019214998930692673,0.20306900143623352,0.9719740152359009
16.46,-0.2707023322582245,0.46337637305259705,0.5150401592254639,-0.019214998930692673,0.20306900143623352,0.9719740152359009
16.48,-0.1844184696674347,0.6167699098587036,0.5970631241798401,0.003263500053435564,0.1722945123910904,1.0242509841918945
16.5,-0.09174319356679916,0.6764229536056519,0.6077154278755188,0.003263500053435564,0.1722945123910904,1.0242509841918945
16.52,-0.08109086751937866,0.5794867873191833,0.5810846090316772,-0.008723000064492226,0.13590799272060394,1.0237629413604736
16.54,-0.11624355614185333,0.29293906688690186,0.437278151512146,0.030865998938679695,0.10144300013780594,1.0621320009231567
16.56,-0.10665645450353622,0.07043853402137756,0.22955772280693054,0.030865998938679695,0.10144300013780594,1.0621320009231567
16.58,-0.028894444927573204,-0.057389430701732635,0.09334104508161545,0.006191499996930361,0.095830999314785,1.0606679916381836
16.6,0.08282186836004257,-0.1149120107293129,-0.02170412242412567,-0.017262998968362808,0.10315100103616714,1.0279109477996826
16.62,0.1446053832769394,-0.12449911236763,-0.04300878196954727,-0.017262998968362808,0.10315100103616714,1.0279109477996826
16.64,0.11584409326314926,-0.09041165560483932,-0.02170412242412567,-0.027541501447558403,0.15640400350093842,0.9888405203819275
16.66,0.021038351580500603,-0.05312849581241608,-0.0238345880061388,-0.027541501447558403,0.15640400350093842,0.9888405203819275
16.68,-0.00226362026296556,-0.004127778112888336,-0.011051792651414871,-0.015310999006032944,0.15347599983215332,1.0022605657577515
16.7,0.008255556225776672,0.006524552125483751,-0.0003994623839389533,-0.02433899976313114,0.1588440090417862,1.0029925107955933
16.72,0.021038351580500603,0.031024912372231483,0.02303566411137581,-0.02311900071799755,0.16863450407981873,1.005950927734375
16.74,0.019973119720816612,0.06404713541269302,0.02729659713804722,-0.020191000774502754,0.16717049479484558,0.9973805546760559
16.76,0.00399462366476655,0.06404713541269302,0.011318100616335869,-0.020191000774502754,0.16717049479484558,0.9973805546760559
16.78,-0.0001331541279796511,0.07150376588106155,0.011318100616335869,-0.022874999791383743,0.157136008143425,1.005950927734375
16.8,-0.004394086077809334,0.060851436108350754,0.005991935729980469,-0.031201500445604324,0.1593320071697235,1.0066829919815063
16.82,0.03169068321585655,0.04274247586727142,0.01770949922502041,-0.031201500445604324,0.1593320071697235,1.0066829919815063
16.84,0.04660394415259361,0.028894444927573204,0.01664426550269127,-0.028273500502109528,0.15860000252723694,1.0034805536270142
16.86,0.03595161437988281,0.03848154470324516,0.014513799920678139,-0.03681349754333496,0.16424250602722168,0.9973805546760559
16.88,0.03914731368422508,0.048068638890981674,0.01983996480703354,-0.03168949857354164,0.16204650700092316,1.0115630626678467
16.9,0.10306129604578018,0.023568280041217804,0.01983996480703354,-0.03046949952840805,0.16424250602722168,1.0179070234298706
16.92,0.12862688302993774,-0.021171506494283676,0.02410089783370495,-0.03461749851703644,0.16961050033569336,1.0081470012664795
16.94,0.07003907114267349,-0.019041040912270546,0.02516612969338894,-0.032421499490737915,0.16790249943733215,0.9944524765014648
16.96,0.022103585302829742,0.018242115154862404,0.02410089783370495,-0.0290055014193058,0.16790249943733215,0.993720531463623
16.98,-0.011850717477500439,0.019307348877191544,0.014513799920678139,-0.03168949857354164,0.16619449853897095,0.993720531463623
17,-0.034220609813928604,0.031024912372231483,0.007057168986648321,-0.03022550232708454,0.164730504155159,0.9951844811439514
17.02,-0.020372580736875534,0.03954677656292915,0.011318100616335869,-0.032421499490737915,0.1693664938211441,1.0022605657577515
17.04,-0.006524552125483751,0.022503048181533813,0.01664426550269127,-0.03266550227999687,0.1693664938211441,1.0118070840835571
17.06,-0.016111649572849274,0.00226362026296556,0.01664426550269127,-0.03583750128746033,0.17790649831295013,1.0086350440979004
17.08,0.04447348043322563,-0.016910573467612267,0.01877473294734955,-0.02949349954724312,0.17156249284744263,1.0159550905227661
17.1,0.05619104206562042,-0.037150003015995026,0.0038614696823060513,-0.026047000661492348,0.17205050587654114,1.0044870376586914
17.12,0.04660394415259361,-0.021171506494283676,0.004926702938973904,-0.028517499566078186,0.16546249389648438,0.9990885257720947
17.14,0.021038351580500603,-0.008388710208237171,0.004926702938973904,-0.02924949862062931,0.1740024983882904,1.000064492225647
17.16,-0.017176883295178413,0.013981183059513569,-0.004660394508391619,-0.027541501447558403,0.17302650213241577,1.003724455833435
17.18,-0.025698747485876083,0.027829213067889214,-0.01957365684211254,-0.028517499566078186,0.17595449090003967,1.0003085136413574
17.2,0.022103585302829742,0.03209014609456062,-0.02489982172846794,-0.03339749947190285,0.1618025004863739,1.0069270133972168
