timestamp,gyro_x,gyro_y,gyro_z,acc_x,acc_y,acc_z
10,-0.005870139691978693,-0.06793910264968872,0.03314011171460152,-0.1272735595703125,0.9851837158203125,-0.0923614501953125
10.02,0.07616081088781357,-0.10068772733211517,0.04719308018684387,-0.1320343017578125,0.9864044189453125,-0.0934295654296875
10.04,0.13632401823997498,-0.0701758936047554,0.04860535264015198,-0.1380157470703125,0.9860076904296875,-0.089569091796875
10.06,0.15745140612125397,-0.018033063039183617,0.04977447912096977,-0.1525421142578125,0.9799957275390625,-0.06512451171875
10.08,0.158980593085289,0.035896480083465576,0.04344840720295906,-0.1525421142578125,0.9799957275390625,-0.06512451171875
10.1,0.1527101844549179,0.08054863661527634,0.02587633766233921,-0.1741485595703125,0.9827117919921875,-0.0462188720703125
10.12,0.11835380643606186,0.07433468103408813,0.00490234699100256,-0.1803741455078125,0.9833984375,-0.03424072265625
10.14,0.07562632113695145,0.06645412743091583,-0.01647830940783024,-0.1803741455078125,0.9833984375,-0.03424072265625
10.16,0.026497654616832733,0.05634529888629913,-0.026690466329455376,-0.1745452880859375,0.9754180908203125,-0.0286407470703125
10.18,-0.032952625304460526,0.049182992428541183,-0.02004348300397396,-0.1614532470703125,0.9815521240234375,-0.02752685546875
10.2,-0.07503509521484375,0.04687030240893364,-0.008315454237163067,-0.1455078125,0.9866180419921875,-0.0301513671875
10.22,-0.09496193379163742,0.012010590173304081,0.007614510133862495,-0.13525390625,0.9874114990234375,-0.0369873046875
10.24,-0.09453023225069046,-0.03936471790075302,0.020266655832529068,-0.1341552734375,0.9883575439453125,-0.046051025390625
10.26,-0.08157555013895035,-0.07758533954620361,0.03238936513662338,-0.1380615234375,0.9856719970703125,-0.0534210205078125
10.28,-0.06555291265249252,-0.09763840585947037,0.05092416703701019,-0.1405181884765625,0.9832611083984375,-0.06158447265625
10.3,-0.034152112901210785,-0.08774583041667938,0.05389492213726044,-0.143402099609375,0.980499267578125,-0.0673065185546875
10.32,-0.011611382476985455,-0.07537038624286652,0.04552913457155228,-0.15228271484375,0.9839935302734375,-0.0710601806640625
10.34,0.010635334067046642,-0.06338723003864288,0.032514799386262894,-0.1611328125,0.980255126953125,-0.069671630859375
10.36,0.029348833486437798,-0.026249714195728302,0.0054368432611227036,-0.1655426025390625,0.9766998291015625,-0.069915771484375
10.38,0.036799561232328415,0.03720302879810333,-0.012496616691350937,-0.1671295166015625,0.980621337890625,-0.06793212890625
10.4,0.03689330443739891,0.09809141606092453,-0.021681593731045723,-0.15740966796875,0.98291015625,-0.066375732421875
10.42,0.04422472044825554,0.12131497263908386,-0.018439194187521935,-0.1460113525390625,0.984375,-0.062591552734375
10.44,0.044081173837184906,0.09311423450708389,-0.0020764668006449938,-0.1365509033203125,0.9854583740234375,-0.059356689453125
10.46,0.04012025520205498,0.048888977617025375,0.011629492044448853,-0.134124755859375,0.9828033447265625,-0.0551910400390625
10.48,0.03316860646009445,0.02069462649524212,0.022245118394494057,-0.1357879638671875,0.9838104248046875,-0.0503692626953125
10.5,0.01350568886846304,0.0036844832357019186,0.02851499803364277,-0.1376495361328125,0.9865875244140625,-0.0490264892578125
10.52,-0.0012681973166763783,-0.00424321461468935,0.03356967866420746,-0.1414642333984375,0.98590087890625,-0.0453948974609375
10.54,-0.0184093676507473,-0.020506341010332108,0.03416755795478821,-0.1469573974609375,0.985687255859375,-0.046112060546875
10.56,-0.02436099946498871,-0.05289570614695549,0.027358386665582657,-0.1550445556640625,0.97991943359375,-0.0458831787109375
10.58,-0.033486854285001755,-0.0635203868150711,0.018614962697029114,-0.1627044677734375,0.9805908203125,-0.0494384765625
10.6,-0.030227677896618843,-0.022227540612220764,0.0015488944482058287,-0.1646575927734375,0.980621337890625,-0.0534515380859375
10.62,-0.03080744668841362,0.03365063667297363,-0.00506826164200902,-0.159698486328125,0.979827880859375,-0.0597991943359375
10.64,-0.022836873307824135,0.07331762462854385,-0.003373692510649562,-0.148101806640625,0.9816741943359375,-0.061767578125
10.66,-0.002401106059551239,0.05804599076509476,0.004471713677048683,-0.1378631591796875,0.9850006103515625,-0.067352294921875
10.68,0.01986158825457096,0.020776385441422462,0.013318468816578388,-0.1366119384765625,0.9841156005859375,-0.0676116943359375
10.7,0.049063149839639664,-0.010492588393390179,0.019354788586497307,-0.1360626220703125,0.984130859375,-0.066375732421875
10.72,0.047392550855875015,-0.03423253819346428,0.020543090999126434,-0.1397552490234375,0.98492431640625,-0.0638580322265625
10.74,0.04549451544880867,-0.022471487522125244,0.025106418877840042,-0.146148681640625,0.988311767578125,-0.0561676025390625
10.76,0.026333069428801537,-0.01966984197497368,0.03194807842373848,-0.1437530517578125,0.979461669921875,-0.052215576171875
10.78,0.0047116647474467754,-0.043543215841054916,0.035355594009160995,-0.144256591796875,0.98089599609375,-0.0500335693359375
10.8,0.02148052491247654,-0.05338572710752487,0.03460058942437172,-0.1480255126953125,0.983551025390625,-0.051666259765625
10.82,0.02725692093372345,-0.05390637367963791,0.022608373314142227,-0.151092529296875,0.982757568359375,-0.0571746826171875
10.84,0.005584648810327053,-0.03791835531592369,0.01593955233693123,-0.1528167724609375,0.9887542724609375,-0.055694580078125
10.86,-0.007122357841581106,-0.0011936287628486753,0.002317482838407159,-0.1450347900390625,0.9893646240234375,-0.0517578125
10.88,-0.021578527987003326,0.030116356909275055,-0.008945291861891747,-0.142547607421875,0.982940673828125,-0.0536956787109375
10.9,-0.03136564418673515,0.03556571528315544,-0.013081447221338749,-0.13525390625,0.9836883544921875,-0.0550994873046875
10.92,-0.031200530007481575,0.028170650824904442,-0.01121989730745554,-0.1349334716796875,0.985809326171875,-0.05609130859375
10.94,-0.03299416974186897,-0.0025928535033017397,-0.0025654230266809464,-0.1344146728515625,0.984222412109375,-0.0591888427734375
10.96,-0.015482020564377308,-0.006885336712002754,-0.0009201221400871873,-0.1330718994140625,0.9866943359375,-0.061492919921875
10.98,-0.005881857592612505,0.004412058740854263,0.008324242196977139,-0.1335601806640625,0.9866790771484375,-0.0680084228515625
11,-0.004403004422783852,0.012678510509431362,0.01501090731471777,-0.1297149658203125,0.9855499267578125,-0.06707763671875
11.02,-0.002267149044200778,0.00042317630141042173,0.022719161584973335,-0.1315460205078125,0.9842529296875,-0.0648651123046875
11.04,0.01733771152794361,-0.000749679864384234,0.021751368418335915,-0.13824462890625,0.9832000732421875,-0.0648193359375
11.06,0.024942368268966675,-0.005215800832957029,0.014967497438192368,-0.14251708984375,0.9841461181640625,-0.0661163330078125
11.08,0.02737809531390667,0.0005842975224368274,0.008419317193329334,-0.14776611328125,0.98291015625,-0.062957763671875
11.1,0.01745542325079441,0.030613569542765617,0.002639458980411291,-0.1501007080078125,0.9837646484375,-0.05902099609375
11.12,0.012465192005038261,0.04675845056772232,-0.0057130130007863045,-0.1471405029296875,0.9810638427734375,-0.0587615966796875
11.14,0.015340606682002544,0.04241377115249634,-0.007395864464342594,-0.1448974609375,0.9802398681640625,-0.0564727783203125
11.16,0.008324508555233479,0.0260465145111084,-0.006150304339826107,-0.144317626953125,0.9851226806640625,-0.0561981201171875
11.18,0.004736165516078472,0.014125406742095947,0.0019715381786227226,-0.141510009765625,0.98321533203125,-0.052398681640625
11.2,0.005618470720946789,0.007559382822364569,0.0006151901907287538,-0.1390228271484375,0.9821929931640625,-0.0525665283203125
11.22,-0.005943110212683678,-0.0021164140198379755,0.00005699164830730297,-0.142913818359375,0.9894866943359375,-0.054168701171875
11.24,-0.025285648182034492,-0.008547415025532246,-0.005617405753582716,-0.1435394287109375,0.986724853515625,-0.0504608154296875
11.26,-0.019206451252102852,-0.002552373567596078,-0.007410245481878519,-0.141387939453125,0.9824371337890625,-0.050506591796875
11.28,-0.017901502549648285,-0.010824152268469334,-0.005534581374377012,-0.1408843994140625,0.9841156005859375,-0.0567474365234375
11.3,-0.016498548910021782,-0.003163302782922983,-0.0004854942671954632,-0.1364288330078125,0.9846649169921875,-0.059356689453125
11.32,-0.007940481416881084,0.0001030643325066194,0.0062645538710057735,-0.132568359375,0.9846038818359375,-0.0615386962890625
11.34,0.009192433208227158,0.0001627191377338022,0.00917618814855814,-0.1317138671875,0.984954833984375,-0.06451416015625
11.36,0.01925039291381836,-0.010410563088953495,0.008470982313156128,-0.1367645263671875,0.987579345703125,-0.06634521484375
11.38,0.02454821951687336,-0.013548566028475761,0.005869074258953333,-0.1384735107421875,0.9839324951171875,-0.062591552734375
11.4,0.020252007991075516,-0.01805143803358078,0.005093828309327364,-0.1402435302734375,0.9831695556640625,-0.059906005859375
11.42,0.02008902281522751,-0.02628752961754799,0.006159625016152859,-0.1391143798828125,0.9844970703125,-0.0576324462890625
11.44,0.0082102594897151,-0.0158279649913311,0.005723133217543364,-0.140472412109375,0.986541748046875,-0.0576019287109375
11.46,0.001969673903658986,-0.013206616044044495,0.003468500915914774,-0.1376800537109375,0.98419189453125,-0.056121826171875
11.48,0.0032053806353360415,-0.006106628105044365,-0.0007499461644329131,-0.1386566162109375,0.9828033447265625,-0.05438232421875
11.5,-0.0021196098532527685,-0.01888980157673359,-0.0018639464396983385,-0.139129638671875,0.9845428466796875,-0.0565032958984375
11.52,-0.006747385021299124,-0.01218902226537466,-0.00387410051189363,-0.136993408203125,0.985504150390625,-0.0570526123046875
11.54,-0.01181964110583067,-0.0007978830835781991,-0.002403769176453352,-0.1363677978515625,0.9835968017578125,-0.0582427978515625
11.56,-0.008711998350918293,-0.0004569984448608011,-0.0014495585346594453,-0.1343231201171875,0.985504150390625,-0.059173583984375
11.58,-0.005031776614487171,-0.0044080642983317375,0.0008407599525526166,-0.1339111328125,0.9836883544921875,-0.060821533203125
11.6,-0.005768406670540571,-0.0019001654582098126,0.00487358495593071,-0.1314544677734375,0.985076904296875,-0.0630950927734375
11.62,-0.004179032519459724,-0.0057652113027870655,0.011343201622366905,-0.1307525634765625,0.98431396484375,-0.0611419677734375
11.64,0.013903298415243626,-0.00003968110104324296,0.008896023035049438,-0.133941650390625,0.98468017578125,-0.0641632080078125
11.66,0.02027491107583046,-0.008142614737153053,0.008351407013833523,-0.1387939453125,0.9850006103515625,-0.0648956298828125
11.68,0.015448731370270252,-0.014901718124747276,0.0032860743813216686,-0.1385345458984375,0.9845123291015625,-0.062530517578125
11.7,0.015448731370270252,-0.000176301269675605,0.0010823087068274617,-0.14324951171875,0.9871673583984375,-0.0584259033203125
11.72,0.013494237326085567,0.007670702878385782,0.0009052084642462432,-0.142059326171875,0.9804534912109375,-0.0573577880859375
11.74,0.0011523497523739934,0.0006964165950194001,0.0006093312404118478,-0.1431884765625,0.9837799072265625,-0.0574798583984375
11.76,0.0008588694618083537,0.00247540813870728,-0.0038091193418949842,-0.144805908203125,0.983428955078125,-0.05517578125
11.78,-0.002778209513053298,-0.0020271982066333294,-0.006842193193733692,-0.143707275390625,0.9829864501953125,-0.0582733154296875
11.8,-0.0017398431664332747,-0.00868936162441969,-0.004914064891636372,-0.14263916015625,0.98345947265625,-0.0591888427734375
11.82,-0.005736182443797588,0.008681372739374638,-0.0030629015527665615,-0.1388397216796875,0.986602783203125,-0.0590667724609375
11.84,-0.009016398340463638,0.015675632283091545,0.0008005462004803121,-0.132415771484375,0.9853668212890625,-0.0591583251953125
11.86,-0.003710316028445959,0.008262457326054573,0.005708752200007439,-0.13250732421875,0.983306884765625,-0.060150146484375
11.88,0.0002490055630914867,-0.007926899008452892,0.010575945489108562,-0.1341400146484375,0.9869537353515625,-0.061309814453125
11.9,0.004560663364827633,-0.013686517253518105,0.008800681680440903,-0.1376800537109375,0.984375,-0.060821533203125
11.92,0.005858155433088541,-0.007732488214969635,0.007680556736886501,-0.14208984375,0.9814300537109375,-0.061187744140625
11.94,0.014784272760152817,-0.01133787538856268,0.008028898388147354,-0.144989013671875,0.9823760986328125,-0.0625762939453125
11.96,0.004177168011665344,-0.015983227640390396,0.005299690645188093,-0.1466064453125,0.9838714599609375,-0.06134033203125
11.98,0.017540112137794495,-0.00185089698061347,0.006685866042971611,-0.146759033203125,0.9812164306640625,-0.0575408935546875
12,0.012370383366942406,-0.01022627204656601,0.0010181264951825142,-0.1455078125,0.98358154296875,-0.060516357421875
12.02,0.018810173496603966,-0.02064375951886177,-0.007195062469691038,-0.1494903564453125,0.9840545654296875,-0.0579376220703125
12.04,0.01847035437822342,-0.015181083232164383,-0.014642326161265373,-0.1539459228515625,0.9852294921875,-0.060882568359375
12.06,0.001270594191737473,-0.013674266636371613,-0.02195829525589943,-0.1510162353515625,0.979278564453125,-0.0580291748046875
12.08,-0.005144162103533745,0.018493257462978363,-0.016715597361326218,-0.144317626953125,0.979095458984375,-0.055206298828125
12.1,-0.004795554094016552,0.04096793755888939,-0.012467055581510067,-0.13385009765625,0.986236572265625,-0.05841064453125
12.12,-0.010698450729250908,0.02960183471441269,-0.007388407830148935,-0.1314239501953125,0.98681640625,-0.0604095458984375
12.14,-0.0010157296201214194,0.033014941960573196,-0.008737831376492977,-0.1287384033203125,0.9904632568359375,-0.064422607421875
12.16,0.0009805759182199836,0.031188279390335083,0.0018359832465648651,-0.1287384033203125,0.9904632568359375,-0.064422607421875
12.18,-0.003430684097111225,0.014147244393825531,0.017417605966329575,-0.124755859375,0.98419189453125,-0.063507080078125
12.2,0.0037798245903104544,-0.005525260232388973,0.025417208671569824,-0.1265411376953125,0.9865264892578125,-0.0621795654296875
12.22,0.01967490091919899,-0.02022324688732624,0.02159743756055832,-0.1328887939453125,0.9864501953125,-0.0644989013671875
12.24,0.0285890344530344,-0.034200847148895264,0.017001353204250336,-0.1459503173828125,0.9823760986328125,-0.0623626708984375
12.26,0.023002520203590393,-0.02251116745173931,0.005805424880236387,-0.152618408203125,0.98345947265625,-0.061004638671875
12.28,0.01329876109957695,0.012500345706939697,-0.003932689782232046,-0.155853271484375,0.9800872802734375,-0.0576629638671875
12.3,-0.0049188584089279175,0.04712729901075363,-0.010896855965256691,-0.1503753662109375,0.9800262451171875,-0.0572662353515625
12.32,-0.0098052266985178,0.06690233200788498,-0.015357650816440582,-0.1454620361328125,0.983428955078125,-0.0564117431640625
12.34,-0.0059779975563287735,0.056526657193899155,-0.01239168830215931,-0.140167236328125,0.9855499267578125,-0.0616302490234375
12.36,-0.009431318379938602,0.03283943980932236,-0.009532252326607704,-0.140167236328125,0.9855499267578125,-0.0616302490234375
12.38,0.002754773711785674,0.017482852563261986,-0.0015334481140598655,-0.1334686279296875,0.9837646484375,-0.0576934814453125
12.4,0.0011640676530078053,-0.012160525657236576,0.009255549870431423,-0.131744384765625,0.9851531982421875,-0.0619354248046875
12.42,-0.005781989078968763,-0.02876906469464302,0.01474645547568798,-0.1322021484375,0.9870758056640625,-0.061767578125
12.44,-0.0008559399866499007,-0.025497104972600937,0.014828747138381004,-0.13311767578125,0.98577880859375,-0.0611114501953125
12.46,0.001787779969163239,-0.008096009492874146,0.010087255388498306,-0.141326904296875,0.985198974609375,-0.06341552734375
12.48,-0.004424042999744415,0.002246376359835267,0.004914331249892712,-0.1414947509765625,0.9842681884765625,-0.064910888671875
12.5,-0.007297860458493233,0.006602508947253227,0.003686081152409315,-0.1436920166015625,0.98431396484375,-0.0615997314453125
12.52,0.004683168604969978,0.01215573213994503,0.004197940696030855,-0.1438446044921875,0.981475830078125,-0.064056396484375
12.54,0.0116188395768404,-0.011829229071736336,0.005854959599673748,-0.1414031982421875,0.9848175048828125,-0.0665435791015625
12.56,0.018329473212361336,-0.02521108090877533,0.005380650516599417,-0.1396636962890625,0.981201171875,-0.06640625
12.58,0.018324412405490875,-0.01158847939223051,0.006640059407800436,-0.14190673828125,0.9845733642578125,-0.0649261474609375
12.6,0.011591674759984016,0.01896197348833084,0.0027321369852870703,-0.1419677734375,0.9857635498046875,-0.0636749267578125
12.62,0.005093828309327364,0.0252198688685894,0.0004958806093782187,-0.1376953125,0.98297119140625,-0.063262939453125
12.64,0.007810518611222506,0.0029137644451111555,-0.004462392535060644,-0.1373443603515625,0.982818603515625,-0.0609893798828125
12.66,0.004579305648803711,-0.0307517871260643,-0.0022865901701152325,-0.1439666748046875,0.986846923828125,-0.0629730224609375
12.68,0.004804342519491911,-0.035403262823820114,-0.0010106696281582117,-0.14263916015625,0.9808197021484375,-0.0597076416015625
12.7,-0.003992078360170126,-0.007202785462141037,0.0016887104138731956,-0.13726806640625,0.9835205078125,-0.0634918212890625
12.72,-0.011361311189830303,0.02231409400701523,0.0036069853231310844,-0.130859375,0.9859771728515625,-0.064971923828125
12.74,-0.0018314558546990156,0.03578782454133034,0.005086637567728758,-0.1273040771484375,0.9866943359375,-0.0659027099609375
12.76,0.0024317323695868254,0.013575729914009571,0.013427924364805222,-0.127227783203125,0.987457275390625,-0.0700836181640625
12.78,0.012458001263439655,-0.02466859482228756,0.01798485964536667,-0.1311187744140625,0.983917236328125,-0.0672454833984375
12.8,0.021564681082963943,-0.04655418545007706,0.012135492637753487,-0.138916015625,0.9840087890625,-0.0659027099609375
12.82,0.020207533612847328,-0.04199432209134102,0.007511712145060301,-0.14520263671875,0.983428955078125,-0.0646514892578125
12.84,0.011137072928249836,-0.02184111624956131,-0.0013720606220886111,-0.14794921875,0.9801177978515625,-0.0621337890625
12.86,-0.0023782027419656515,0.003593403147533536,-0.007939149625599384,-0.1510772705078125,0.9820404052734375,-0.061279296875
12.88,-0.01398532371968031,0.02959517575800419,-0.013997840695083141,-0.1485137939453125,0.9820098876953125,-0.059783935546875
12.9,-0.00561101408675313,0.04517893120646477,-0.01387000922113657,-0.1417694091796875,0.981231689453125,-0.0615234375
12.92,-0.004719654098153114,0.03208043798804283,-0.00875274557620287,-0.135711669921875,0.983734130859375,-0.064453125
12.94,-0.0043657198548316956,0.001942243310622871,-0.002712695859372616,-0.1335906982421875,0.985992431640625,-0.0637359619140625
12.96,0.007708519697189331,-0.00407596817240119,0.00640942994505167,-0.1314849853515625,0.9824981689453125,-0.062286376953125
12.98,0.006762298755347729,-0.014395717531442642,0.010213488712906837,-0.1323394775390625,0.9858856201171875,-0.065704345703125
13,0.003546531544998288,-0.016345683485269547,0.010834005661308765,-0.1343841552734375,0.9848785400390625,-0.062530517578125
13.02,0.00019574233738239855,-0.013939517550170422,0.011619637720286846,-0.1351165771484375,0.9837493896484375,-0.06341552734375
13.04,0.005856557283550501,-0.01344496849924326,0.01071043498814106,-0.13653564453125,0.982452392578125,-0.0630035400390625
13.06,-0.0005246427026577294,-0.016273245215415955,0.0070648337714374065,-0.139984130859375,0.983062744140625,-0.0647125244140625
13.08,-0.01013945322483778,-0.009563944302499294,0.005321528296917677,-0.1418304443359375,0.9862518310546875,-0.0648956298828125
13.1,-0.0049433596432209015,0.007137271575629711,-0.005026716738939285,-0.1394805908203125,0.98431396484375,-0.0637969970703125
13.12,-0.0004516721237450838,0.01589001715183258,-0.004283960908651352,-0.13751220703125,0.984130859375,-0.0658721923828125
13.14,-0.006843258626759052,0.022536201402544975,-0.0032623722217977047,-0.1356964111328125,0.9839019775390625,-0.0671234130859375
13.16,-0.004323109518736601,0.03179361671209335,-0.00006125270738266408,-0.1330413818359375,0.984130859375,-0.0649261474609375
13.18,-0.001841575838625431,0.023191072046756744,0.002317482838407159,-0.1359405517578125,0.9845123291015625,-0.0673675537109375
13.2,-0.0010048106778413057,0.0065191518515348434,-0.002013882389292121,-0.1401824951171875,0.9860076904296875,-0.06585693359375
13.22,0.005835518706589937,-0.00014168016787152737,-0.004449876025319099,-0.1397552490234375,0.9822845458984375,-0.0645294189453125
13.24,0.006925283931195736,0.008766060695052147,-0.004400873556733131,-0.1419830322265625,0.982025146484375,-0.064849853515625
13.26,0.004062385763972998,0.02039075829088688,0.0012325108982622623,-0.141815185546875,0.9842987060546875,-0.063507080078125
13.28,-0.0008050735923461616,0.02123711071908474,0.001588575541973114,-0.1367034912109375,0.9841156005859375,-0.062652587890625
13.3,-0.005246960092335939,0.021810224279761314,-0.0012183962389826775,-0.13970947265625,0.9851531982421875,-0.06243896484375
13.32,-0.007459247950464487,0.03254489228129387,-0.0016282566357403994,-0.1399078369140625,0.985076904296875,-0.060638427734375
13.34,-0.013742177747189999,0.02370346523821354,0.0012037487467750907,-0.1407470703125,0.9834136962890625,-0.06304931640625
13.36,-0.016957145184278488,0.013482785783708096,-0.0007571366732008755,-0.139801025390625,0.9831390380859375,-0.0607452392578125
13.38,-0.009471531957387924,0.012114719487726688,-0.0011627360945567489,-0.1387939453125,0.9852142333984375,-0.062255859375
13.4,-0.0015385081060230732,0.010267817415297031,0.0006415555253624916,-0.1386260986328125,0.9840545654296875,-0.0629730224609375
13.42,-0.0009672601008787751,0.005394232925027609,-0.00025779398856684566,-0.1372528076171875,0.9832000732421875,-0.0628814697265625
13.44,-0.012560000643134117,0.00170761882327497,0.0005318332696333528,-0.141387939453125,0.9823760986328125,-0.0629425048828125
13.46,-0.011293401010334492,0.007168430835008621,-0.0012159993639215827,-0.1421356201171875,0.981109619140625,-0.060516357421875
13.48,-0.008319981396198273,0.012032694183290005,0.0015065502375364304,-0.1457061767578125,0.9844818115234375,-0.0636749267578125
13.5,-0.0015744607662782073,0.014930480159819126,-0.004834169987589121,-0.1441192626953125,0.9820709228515625,-0.0648651123046875
13.52,0.00021252025908324867,0.011393269523978233,-0.005557218100875616,-0.142578125,0.9851837158203125,-0.06561279296875
13.54,-0.002865294925868511,0.01600959338247776,-0.0005254416610114276,-0.13787841796875,0.9828338623046875,-0.0644378662109375
13.56,-0.0027486486360430717,0.026150643825531006,-0.0013401026371866465,-0.135498046875,0.98260498046875,-0.0629730224609375
13.58,0.0019057580502703786,0.035776108503341675,0.0015805860748514533,-0.1343994140625,0.9834747314453125,-0.063323974609375
13.6,0.0004777711001224816,0.04115143045783043,0.005242166109383106,-0.133331298828125,0.9839630126953125,-0.065521240234375
13.62,0.00006657902849838138,0.030472954735159874,0.014365890063345432,-0.13348388671875,0.988189697265625,-0.064788818359375
13.64,0.004757204558700323,0.007548197638243437,0.021083980798721313,-0.13262939453125,0.985382080078125,-0.062347412109375
13.66,0.01336001418530941,-0.013850567862391472,0.02069143019616604,-0.1365814208984375,0.9818878173828125,-0.0643310546875
13.68,0.01233229972422123,-0.021021928638219833,0.0204584039747715,-0.1394805908203125,0.9853668212890625,-0.06317138671875
13.7,0.007878695614635944,-0.007213437929749489,0.019085809588432312,-0.1426849365234375,0.9835968017578125,-0.06201171875
13.72,0.0015225291717797518,0.002746518002822995,0.013920875266194344,-0.1426849365234375,0.9835968017578125,-0.06201171875
13.74,-0.0032658344134688377,0.005949768237769604,0.005488774739205837,-0.146240234375,0.981964111328125,-0.0606536865234375
13.76,0.00703900121152401,0.018553709611296654,-0.0041340249590575695,-0.1460418701171875,0.9832000732421875,-0.060150146484375
13.78,-0.0008077367674559355,0.019536416977643967,-0.01167290098965168,-0.1448211669921875,0.98236083984375,-0.0625762939453125
13.8,-0.00836765207350254,0.020670924335718155,-0.009466738440096378,-0.1432647705078125,0.984405517578125,-0.0593109130859375
13.82,-0.006828078534454107,0.027161579579114914,-0.010297644883394241,-0.1408233642578125,0.98260498046875,-0.0606689453125
13.84,-0.011422297917306423,0.02648274041712284,-0.004033091012388468,-0.1374969482421875,0.9869384765625,-0.0628509521484375
13.86,-0.006160424090921879,0.01884612627327442,-0.0025068335235118866,-0.134002685546875,0.9840850830078125,-0.061370849609375
13.88,-0.014579474925994873,0.009039834141731262,0.0031502533238381147,-0.1334228515625,0.985260009765625,-0.0640716552734375
13.9,-0.0033127060160040855,0.006517554167658091,0.008153799921274185,-0.1308441162109375,0.9843292236328125,-0.061859130859375
13.92,0.00959829892963171,0.012190353125333786,0.012204468250274658,-0.12847900390625,0.9832305908203125,-0.064300537109375
13.94,0.0021377194207161665,0.002005093963816762,0.018037589266896248,-0.1281585693359375,0.986175537109375,-0.067138671875
13.96,-0.0001478054327890277,-0.00541367381811142,0.019541744142770767,-0.1337127685546875,0.986846923828125,-0.06207275390625
13.98,0.011952533386647701,-0.006452572997659445,0.010183394886553288,-0.138916015625,0.982147216796875,-0.0627593994140625
14,0.016656741499900818,-0.0016969662392511964,0.005952164996415377,-0.1435394287109375,0.9813079833984375,-0.0635528564453125
14.02,-0.002972354181110859,0.008389223366975784,0.0003326288133393973,-0.1429290771484375,0.9861297607421875,-0.063232421875
14.04,-0.00765871861949563,0.034385405480861664,-0.007101585157215595,-0.1425628662109375,0.9823150634765625,-0.057586669921875
14.06,-0.004984105937182903,0.03908934444189072,-0.003126551164314151,-0.1396942138671875,0.98077392578125,-0.0612335205078125
14.08,-0.002763562137261033,0.015499863773584366,0.0023752732668071985,-0.1350860595703125,0.98583984375,-0.0630035400390625
14.1,0.0001448759576305747,-0.0056983656249940395,0.002721750643104315,-0.13629150390625,0.985137939453125,-0.061767578125
14.12,0.0007097324123606086,-0.006912501063197851,0.01041295938193798,-0.1357269287109375,0.9843597412109375,-0.062713623046875
14.14,0.006975884083658457,0.0004644552827812731,0.004551075864583254,-0.1355133056640625,0.986297607421875,-0.0621337890625
14.16,-0.0001459412305848673,-0.002240251051262021,0.00358860963024199,-0.13531494140625,0.982086181640625,-0.06201171875
14.18,-0.007256581448018551,-0.007397728972136974,0.00675191218033433,-0.1353302001953125,0.983367919921875,-0.0609893798828125
14.2,-0.0065476479940116405,0.000041278995922766626,0.001996838254854083,-0.134674072265625,0.98455810546875,-0.0606536865234375
14.22,0.004831773228943348,0.011752530001103878,0.0025387913919985294,-0.135711669921875,0.9851226806640625,-0.062591552734375
14.24,0.00014407701382879168,0.01991218887269497,0.0017595505341887474,-0.13623046875,0.9849395751953125,-0.0634918212890625
14.26,-0.009088569320738316,0.008810802362859249,0.0022005699574947357,-0.1351470947265625,0.98590087890625,-0.061981201171875
14.28,0.004838963504880667,0.005842975340783596,0.00515827676281333,-0.13671875,0.9825592041015625,-0.061920166015625
14.3,0.0018048242200165987,-0.00902598537504673,0.005404885392636061,-0.13482666015625,0.983428955078125,-0.06475830078125
14.32,-0.0018580874893814325,-0.002724946476519108,0.0018200043123215437,-0.1362457275390625,0.9881744384765625,-0.063323974609375
14.34,-0.0012748552253469825,0.014819160103797913,-0.0006170544074848294,-0.13262939453125,0.9822998046875,-0.063629150390625
14.36,0.009519202634692192,0.026759441941976547,0.0038458709605038166,-0.131591796875,0.9833221435546875,-0.06524658203125
14.38,0.010342918336391449,0.01067954208701849,0.00842810608446598,-0.1309356689453125,0.9893646240234375,-0.0670928955078125
14.4,0.010789796710014343,-0.005632319487631321,0.005064799915999174,-0.1350250244140625,0.9848175048828125,-0.0642547607421875
14.42,0.012180499732494354,0.0002822950773406774,0.0038895467296242714,-0.138092041015625,0.9824676513671875,-0.0605316162109375
14.44,-0.0002692455891519785,0.0037326866295188665,-0.001156877144239843,-0.1385498046875,0.9834747314453125,-0.0615692138671875
14.46,-0.00640942994505167,0.01895265281200409,-0.003653058083727956,-0.14056396484375,0.9845123291015625,-0.059906005859375
14.48,-0.00990296434611082,0.022816898301243782,-0.0028762139845639467,-0.1352081298828125,0.9842987060546875,-0.060211181640625
14.5,-0.0019198728259652853,0.021438445895910263,0.0007619303651154041,-0.1312713623046875,0.985626220703125,-0.0621490478515625
14.52,-0.0018298579379916191,0.008949286304414272,0.008236890658736229,-0.127105712890625,0.98455810546875,-0.0640869140625
14.54,-0.0033904702868312597,-0.003811249742284417,0.010366620495915413,-0.1304931640625,0.9888458251953125,-0.063812255859375
14.56,0.0037321539130061865,-0.0023334617726504803,0.008782572112977505,-0.1320343017578125,0.9853973388671875,-0.06280517578125
14.58,0.01341567374765873,0.000075101139373146,0.0065287393517792225,-0.1351470947265625,0.982635498046875,-0.063140869140625
14.6,0.010213222354650497,-0.0029979203827679157,0.0002735066518653184,-0.13665771484375,0.98370361328125,-0.0642547607421875
14.62,0.002162220422178507,-0.0028607675340026617,-0.0001347559446003288,-0.1398468017578125,0.9853363037109375,-0.06292724609375
14.64,0.004738562274724245,0.0065108961425721645,-0.002870887517929077,-0.137481689453125,0.9857330322265625,-0.061614990234375
14.66,0.008310660719871521,0.018573418259620667,-0.007389739155769348,-0.1365203857421875,0.983642578125,-0.063140869140625
14.68,0.0027260116767138243,0.0121852932497859,-0.00993012823164463,-0.138092041015625,0.985321044921875,-0.0633392333984375
14.7,0.0014650048688054085,0.012288624420762062,-0.001975532853975892,-0.132659912109375,0.98486328125,-0.062164306640625
14.72,-0.005666940473020077,0.013367470353841782,-0.0018791264155879617,-0.1289825439453125,0.9833831787109375,-0.061981201171875
14.74,-0.0018373148050159216,0.00743075180798769,0.006746053230017424,-0.1277313232421875,0.9865570068359375,-0.06304931640625
14.76,0.0018397116800770164,-0.008858739398419857,0.00974344089627266,-0.1260833740234375,0.985504150390625,-0.0642242431640625
14.78,0.015337943099439144,-0.02184857428073883,0.008227303624153137,-0.131927490234375,0.986358642578125,-0.0663604736328125
14.8,0.012406868860125542,-0.02009567990899086,0.005341236013919115,-0.137298583984375,0.9862060546875,-0.0651702880859375
14.82,0.00307675008662045,-0.012497149407863617,0.0029907298739999533,-0.136810302734375,0.98443603515625,-0.0637359619140625
14.84,0.000675111310556531,0.008820655755698681,0.0008878979133442044,-0.1356048583984375,0.9826812744140625,-0.0627288818359375
14.86,0.0015747271245345473,0.019400596618652344,-0.0032842103391885757,-0.13690185546875,0.98681640625,-0.0649566650390625
14.88,0.0017438378417864442,0.009672600775957108,0.0015614113071933389,-0.1337738037109375,0.984954833984375,-0.0657806396484375
14.9,0.005248291417956352,-0.00624058535322547,0.0007006776868365705,-0.136199951171875,0.9820556640625,-0.06536865234375
14.92,0.007077882997691631,-0.008226238191127777,0.0013797837309539318,-0.1339569091796875,0.98529052734375,-0.0648956298828125
14.94,0.0029033781029284,-0.0018985675415024161,-0.0004189152386970818,-0.133514404296875,0.9851837158203125,-0.0648956298828125
14.96,0.007798800710588694,0.0020359866321086884,0.0006820355774834752,-0.1314849853515625,0.9854278564453125,-0.064117431640625
14.98,0.009065399877727032,-0.00740332156419754,0.0013933659065514803,-0.1327056884765625,0.9832305908203125,-0.06634521484375
15,0.001955292886123061,-0.016404272988438606,0.0049526807852089405,-0.1298828125,0.9874420166015625,-0.06304931640625
15.02,-0.000009321063771494664,-0.00875913631170988,0.0004540689697023481,-0.1322174072265625,0.9861602783203125,-0.0633392333984375
15.04,-0.00028522455249913037,0.005052549298852682,0.00022956448083277792,-0.136810302734375,0.98370361328125,-0.0641326904296875
15.06,-0.006685866042971611,0.003549993736669421,0.000568318588193506,-0.1343994140625,0.986358642578125,-0.0640869140625
15.08,-0.011453723534941673,0.007218764163553715,-0.0018602180061861873,-0.13616943359375,0.985076904296875,-0.0651092529296875
15.1,-0.008730107918381691,0.009503223933279514,0.004777710884809494,-0.130767822265625,0.98095703125,-0.0667266845703125
15.12,-0.0008724515791982412,-0.00048629322554916143,0.007369232829660177,-0.1306915283203125,0.985321044921875,-0.068450927734375
15.14,-0.003921238239854574,-0.010577542707324028,0.005320729687809944,-0.134765625,0.987335205078125,-0.0693206787109375
15.16,-0.0009925601771101356,-0.015003183856606483,0.005015531089156866,-0.13677978515625,0.9863739013671875,-0.0682830810546875
15.18,0.008048338815569878,-0.01213016640394926,-0.0010455570882186294,-0.1369476318359375,0.98193359375,-0.0687713623046875
15.2,0.007798534352332354,-0.0011763182701542974,0.0016088156262412667,-0.13873291015625,0.983367919921875,-0.069305419921875
15.22,0.0033246902748942375,0.010599381290376186,-0.0013278521364554763,-0.13592529296875,0.9869232177734375,-0.0695037841796875
15.24,0.002159024588763714,0.015573366545140743,-0.002017610939219594,-0.1362152099609375,0.9846038818359375,-0.06536865234375
15.26,0.009315737523138523,0.009904029779136181,0.00020666129421442747,-0.1353302001953125,0.9824371337890625,-0.0672149658203125
15.28,0.012656140141189098,-0.0038075214251875877,0.0006474144756793976,-0.1351318359375,0.983673095703125,-0.06878662109375
15.3,0.010342385619878769,-0.0017419736832380295,-0.0004814995336346328,-0.1368408203125,0.9862518310546875,-0.06683349609375
15.32,0.00833649281412363,0.0038219024427235126,-0.003596332622691989,-0.1364898681640625,0.983062744140625,-0.06390380859375
15.34,0.00902438722550869,0.0023608922492712736,-0.002234125742688775,-0.13665771484375,0.9832763671875,-0.0633544921875
15.36,0.00213665422052145,-0.006336991675198078,0.0005448827287182212,-0.1361083984375,0.9849853515625,-0.06304931640625
15.38,-0.003555852686986327,-0.004543352872133255,-0.00875061471015215,-0.13525390625,0.98675537109375,-0.06170654296875
15.4,-0.007272826507687569,0.008905611000955105,-0.004504736978560686,-0.1343231201171875,0.986175537109375,-0.061492919921875
15.42,-0.010382067412137985,0.005066131241619587,0.001427987008355558,-0.1263275146484375,0.982666015625,-0.0631103515625
15.44,-0.0028812738601118326,-0.009970875456929207,0.003888481529429555,-0.1293487548828125,0.9845428466796875,-0.064910888671875
15.46,0.0014383733505383134,-0.035289548337459564,0.01110564824193716,-0.1293487548828125,0.9858856201171875,-0.0677947998046875
15.48,-0.003923901356756687,-0.04831453412771225,0.005034439731389284,-0.1337890625,0.98419189453125,-0.0666351318359375
15.5,-0.0019710054621100426,-0.0310500618070364,0.0025832662358880043,-0.1364593505859375,0.9834136962890625,-0.065155029296875
15.52,0.004756139125674963,0.00259418529458344,0.0004889564006589353,-0.1348114013671875,0.9844818115234375,-0.0672607421875
15.54,0.0015733955660834908,0.01293257623910904,-0.0054578823037445545,-0.1345367431640625,0.98516845703125,-0.069183349609375
15.56,-0.0038189729675650597,0.002719087526202202,-0.004884237423539162,-0.1359100341796875,0.9861907958984375,-0.0672149658203125
15.58,0.0035382758360356092,0.0025718146935105324,-0.011385812424123287,-0.1388092041015625,0.983734130859375,-0.0636749267578125
15.6,0.0018916432745754719,0.014912903308868408,-0.01701999641954899,-0.1403045654296875,0.9868316650390625,-0.0670318603515625
15.62,-0.012529640458524227,0.02268240973353386,-0.02015267312526703,-0.137542724609375,0.9858245849609375,-0.0627899169921875
15.64,-0.015661250799894333,0.02322356402873993,-0.01932469569146633,-0.1342926025390625,0.9837493896484375,-0.0630035400390625
15.66,-0.015869777649641037,0.024579910561442375,-0.017172595486044884,-0.12860107421875,0.9858551025390625,-0.0640869140625
15.68,-0.010347978211939335,0.02954910323023796,-0.01720455288887024,-0.126708984375,0.9850616455078125,-0.0645599365234375
15.7,-0.008809736929833889,0.03827734664082527,-0.01131177693605423,-0.1295013427734375,0.9888916015625,-0.0658416748046875
15.72,-0.00878177396953106,0.03242611512541771,-0.003454652614891529,-0.1280517578125,0.9840545654296875,-0.0659027099609375
15.74,-0.014973889105021954,0.010402839630842209,-0.003400590270757675,-0.13079833984375,0.9849700927734375,-0.064697265625
15.76,-0.020195815712213516,0.0013187973527237773,-0.0012058793799951673,-0.134246826171875,0.98724365234375,-0.06219482421875
15.78,-0.01769697107374668,0.0032139027025550604,-0.00021252025908324867,-0.1344146728515625,0.981903076171875,-0.0636138916015625
15.8,-0.011457451619207859,0.00815087091177702,-0.003275954397395253,-0.1370849609375,0.985076904296875,-0.0668792724609375
15.82,-0.005094094667583704,0.010090717114508152,-0.010007626377046108,-0.138031005859375,0.9857177734375,-0.0674285888671875
15.84,-0.006543120369315147,0.006685599684715271,-0.008310128003358841,-0.1386260986328125,0.986053466796875,-0.0694427490234375
15.86,-0.001389371114782989,-0.0031427964568138123,-0.008294414728879929,-0.1351470947265625,0.9813690185546875,-0.065460205078125
15.88,0.011207646690309048,0.005703159607946873,-0.012970127165317535,-0.13604736328125,0.9803009033203125,-0.0670013427734375
15.9,0.014663897454738617,0.01822560839354992,-0.011652395129203796,-0.13885498046875,0.98455810546875,-0.068603515625
15.92,0.010879279114305973,0.013729927130043507,-0.012773319147527218,-0.1364288330078125,0.9837188720703125,-0.063629150390625
15.94,-0.0005286374944262207,0.005029379855841398,-0.01465644035488367,-0.1416015625,0.9839935302734375,-0.0594940185546875
15.96,-0.0120702451094985,0.007375624496489763,-0.017598967999219894,-0.145355224609375,0.9876861572265625,-0.0570068359375
15.98,-0.024862205609679222,0.007800132501870394,-0.017355820164084435,-0.144805908203125,0.9821624755859375,-0.0539703369140625
16,-0.027462782338261604,-0.011660650372505188,-0.013143764808773994,-0.1432037353515625,0.980804443359375,-0.05584716796875
16.02,-0.021030450239777565,-0.030770162120461464,-0.008435828611254692,-0.1400909423828125,0.982696533203125,-0.060089111328125
16.04,-0.013374128378927708,-0.037096235901117325,-0.009578058496117592,-0.1394805908203125,0.9835052490234375,-0.0641937255859375
16.06,-0.013493704609572887,-0.03550499677658081,-0.009838249534368515,-0.143218994140625,0.9832305908203125,-0.0672149658203125
16.08,-0.021978534758090973,-0.03772154450416565,-0.007757255341857672,-0.140869140625,0.9874420166015625,-0.0654754638671875
16.1,-0.010387127287685871,-0.022610237821936607,-0.009759154170751572,-0.139007568359375,0.9814605712890625,-0.0641937255859375
16.12,-0.004406199790537357,-0.00842411071062088,-0.004757204558700323,-0.132110595703125,0.9782562255859375,-0.068603515625
16.14,-0.004258661065250635,-0.00914289802312851,0.00923531036823988,-0.123779296875,0.9839935302734375,-0.0700836181640625
16.16,0.0070762853138148785,-0.0072925337590277195,0.023989755660295486,-0.116455078125,0.9864501953125,-0.0715484619140625
16.18,0.02040860243141651,-0.025839319452643394,0.03453267738223076,-0.1125335693359375,0.98553466796875,-0.073394775390625
16.2,0.03894500061869621,-0.04354747757315636,0.048774994909763336,-0.11761474609375,0.9867706298828125,-0.0707244873046875
16.22,0.060330718755722046,-0.052437908947467804,0.04198313504457474,-0.1194915771484375,0.9821929931640625,-0.071014404296875
16.24,0.05633757635951042,-0.05299823731184006,0.051364652812480927,-0.12823486328125,0.9886016845703125,-0.0687255859375
16.26,0.04575071111321449,-0.05101418122649193,0.04139990359544754,-0.1361541748046875,0.99078369140625,-0.059295654296875
16.28,0.050389938056468964,-0.033972349017858505,0.02913098782300949,-0.1531524658203125,0.9882049560546875,-0.05419921875
16.3,0.033193107694387436,-0.04073171690106392,0.007495999336242676,-0.16265869140625,0.97998046875,-0.0514373779296875
16.32,-0.012881177477538586,-0.05145946145057678,-0.01569453999400139,-0.1718902587890625,0.9770050048828125,-0.046173095703125
16.34,-0.03382613882422447,0.0071039823815226555,-0.03722832724452019,-0.17236328125,0.9789886474609375,-0.0427703857421875
16.36,-0.05825984477996826,0.08377505838871002,-0.05589016526937485,-0.1631317138671875,0.9817962646484375,-0.0488433837890625
16.38,-0.07448462396860123,0.12349743396043777,-0.05925506725907326,-0.1479949951171875,0.982940673828125,-0.0529632568359375
16.4,-0.07395012676715851,0.13099662959575653,-0.0516890287399292,-0.13629150390625,0.9858245849609375,-0.0569305419921875
16.42,-0.058218032121658325,0.09862857311964035,-0.0313938744366169,-0.122650146484375,0.985809326171875,-0.0613250732421875
16.44,-0.04237036034464836,0.03226952254772186,-0.01074132788926363,-0.1201324462890625,0.987640380859375,-0.064971923828125
16.46,-0.007663778495043516,-0.026460103690624237,0.006265086587518454,-0.1211700439453125,0.98583984375,-0.0658416748046875
16.48,0.006062420085072517,-0.07594802975654602,0.014319551177322865,-0.1263885498046875,0.9879302978515625,-0.067474365234375
16.5,0.024467792361974716,-0.07962638884782791,0.014938735403120518,-0.1306610107421875,0.981842041015625,-0.0651092529296875
16.52,0.03039439022541046,-0.039673108607530594,0.013798103667795658,-0.1390380859375,0.9822845458984375,-0.06634521484375
16.54,0.015474297106266022,-0.017590178176760674,0.0022801985032856464,-0.142425537109375,0.9867095947265625,-0.064208984375
16.56,0.016227705404162407,0.009501093067228794,-0.007423295173794031,-0.1494903564453125,0.9841156005859375,-0.058624267578125
16.58,0.016650348901748657,0.019161710515618324,-0.011366371065378189,-0.151458740234375,0.97857666015625,-0.0583343505859375
16.6,0.00008122641156660393,0.018681010231375694,-0.02491733431816101,-0.154388427734375,0.9844512939453125,-0.054779052734375
16.62,-0.007645402569323778,0.04418503865599632,-0.032520923763513565,-0.1554718017578125,0.9824981689453125,-0.0512847900390625
16.64,-0.021527929231524467,0.05528029799461365,-0.025965021923184395,-0.14801025390625,0.981414794921875,-0.0536041259765625
16.66,-0.03320961818099022,0.05342034623026848,-0.02165975607931614,-0.1388397216796875,0.9840087890625,-0.052581787109375
16.68,-0.027900872752070427,0.030245786532759666,-0.012174374423921108,-0.1336212158203125,0.9846954345703125,-0.0548858642578125
16.7,-0.020845094695687294,-0.016686035320162773,-0.003230414353311062,-0.131866455078125,0.9857025146484375,-0.055938720703125
16.72,-0.011245730333030224,-0.04975690320134163,0.004426972474902868,-0.1355133056640625,0.9863739013671875,-0.0590667724609375
16.74,-0.009153816848993301,-0.04850708320736885,0.0012522183824330568,-0.1388702392578125,0.9834136962890625,-0.057586669921875
16.76,-0.004079962614923716,-0.027459587901830673,-0.0007739146240055561,-0.1438140869140625,0.9798736572265625,-0.059783935546875
16.78,-0.007697600871324539,0.004454935900866985,-0.006208094768226147,-0.146514892578125,0.9808349609375,-0.05767822265625
16.8,-0.012344550341367722,0.011455320753157139,-0.012023639865219593,-0.150543212890625,0.9869842529296875,-0.0579376220703125
16.82,0.0010367685463279486,0.013192234560847282,-0.01649508625268936,-0.1532440185546875,0.980499267578125,-0.0572509765625
16.84,0.006007025949656963,0.011301389895379543,-0.018861571326851845,-0.1527099609375,0.9817962646484375,-0.0605926513671875
16.86,-0.005124188028275967,0.0009733853512443602,-0.013652695342898369,-0.1508331298828125,0.9827728271484375,-0.05804443359375
16.88,-0.00043329631444066763,0.003896737238392234,-0.01468546874821186,-0.1450042724609375,0.981597900390625,-0.0549774169921875
16.9,0.0213572196662426,0.023058181628584862,-0.014728612266480923,-0.1450347900390625,0.9846343994140625,-0.0593719482421875
16.92,0.011650264263153076,-0.004626443609595299,-0.0031055121216923,-0.1385040283203125,0.98529052734375,-0.0597381591796875
16.94,0.001933987601660192,-0.038363102823495865,0.001145159243606031,-0.138916015625,0.9822998046875,-0.0521392822265625
16.96,0.009984989650547504,-0.04472432658076286,0.002721750643104315,-0.141082763671875,0.983642578125,-0.0505218505859375
16.98,0.01255041267722845,-0.04180790111422539,-0.0046629286371171474,-0.1464080810546875,0.983978271484375,-0.0542144775390625
17,-0.0034352114889770746,-0.044624458998441696,-0.007836351171135902,-0.15032958984375,0.982208251953125,-0.0529937744140625
17.02,-0.011392736807465553,-0.040473923087120056,-0.010980213060975075,-0.1506805419921875,0.9805908203125,-0.050384521484375
17.04,-0.0027140274178236723,-0.023863786831498146,-0.01324123702943325,-0.1483001708984375,0.9824371337890625,-0.0541839599609375
17.06,-0.008733836933970451,-0.00990189891308546,-0.019541477784514427,-0.1459197998046875,0.98699951171875,-0.0575103759765625
17.08,-0.01702958345413208,0.003911917097866535,-0.017167268320918083,-0.143646240234375,0.985595703125,-0.0562896728515625
17.1,-0.012428706511855125,0.011741344816982746,-0.011857724748551846,-0.1378936767578125,0.9861297607421875,-0.0597991943359375
17.12,-0.009562346152961254,-0.002495914464816451,-0.00711623253300786,-0.1378936767578125,0.9861297607421875,-0.0597991943359375
17.14,-0.014388526789844036,-0.02004428207874298,-0.00227806787006557,-0.140472412109375,0.98797607421875,-0.0580902099609375
17.16,0.00063383235828951,-0.035944949835538864,0.007798534352332354,-0.140380859375,0.97802734375,-0.0584259033203125
17.18,0.010326939634978771,-0.03603443503379822,0.0030075078830122948,-0.1411285400390625,0.9828338623046875,-0.059478759765625
17.2,0.007977498695254326,-0.020841898396611214,0.009690443985164165,-0.1447906494140625,0.9846649169921875,-0.060302734375
17.22,0.0012221246724948287,-0.0054488275200128555,0.010712831281125546,-0.142303466796875,0.980377197265625,-0.05908203125
17.24,0.0027867318131029606,-0.0017449031583964825,0.005709550809115171,-0.1450653076171875,0.982757568359375,-0.05755615234375
17.26,0.014119813218712807,0.007897071540355682,0.0006029396899975836,-0.150390625,0.982574462890625,-0.057281494140625
17.28,0.006589991971850395,0.008130364120006561,-0.0046426886692643166,-0.1513824462890625,0.985198974609375,-0.058441162109375
17.3,0.0064893243834376335,0.016716929152607918,-0.006317550782114267,-0.1498260498046875,0.980926513671875,-0.053955078125
17.32,0.013075321912765503,0.025584721937775612,-0.005182245280593634,-0.1460418701171875,0.979278564453125,-0.056365966796875
17.34,0.002098304685205221,0.01315308641642332,-0.00436065997928381,-0.148529052734375,0.9861907958984375,-0.0559539794921875
17.36,0.00771784083917737,0.018010159954428673,-0.005645102355629206,-0.1492919921875,0.9857025146484375,-0.05377197265625
17.38,0.009911486878991127,0.0170932337641716,0.0019156117923557758,-0.14605712890625,0.9777069091796875,-0.0550384521484375
17.4,-0.013009808026254177,-0.0020042951218783855,0.0011683288030326366,-0.1431732177734375,0.9835968017578125,-0.055145263671875
17.42,-0.015443405136466026,0.00759879732504487,0.008506668731570244,-0.1431121826171875,0.986175537109375,-0.05255126953125
17.44,-0.004366785287857056,0.027770644053816795,0.010393518954515457,-0.13958740234375,0.98590087890625,-0.0578765869140625
17.46,0.0018338527297601104,0.01636672206223011,0.014538462273776531,-0.1405029296875,0.98699951171875,-0.061309814453125
17.48,-0.00014221279707271606,-0.015308914706110954,0.012824985198676586,-0.1459503173828125,0.983856201171875,-0.0585174560546875
17.5,0.0076280920766294,-0.02454342693090439,0.012382900342345238,-0.1502838134765625,0.9831085205078125,-0.057861328125
17.52,0.016816530376672745,-0.030671359971165657,0.009843842126429081,-0.15185546875,0.9791107177734375,-0.060760498046875
17.54,0.015836752951145172,-0.032166458666324615,0.005218463949859142,-0.1565704345703125,0.97857666015625,-0.0589447021484375
17.56,0.008599081076681614,-0.010912302881479263,0.0029862024821341038,-0.159393310546875,0.984893798828125,-0.0585479736328125
17.58,0.011908324435353279,0.006730606779456139,-0.004352936986833811,-0.156036376953125,0.97943115234375,-0.055999755859375
17.6,0.011872105300426483,-0.0017251957906410098,-0.010301639325916767,-0.156219482421875,0.97735595703125,-0.05657958984375
17.62,-0.0006554039428010583,0.00024101608141791075,-0.012050004675984383,-0.1532440185546875,0.9810943603515625,-0.05657958984375
17.64,-0.005456018261611462,0.026825489476323128,-0.013743242248892784,-0.14581298828125,0.983917236328125,-0.0573577880859375
17.66,-0.0070488546043634415,0.056122925132513046,-0.008875250816345215,-0.1409454345703125,0.9850311279296875,-0.0577545166015625
17.68,-0.004254932515323162,0.05239902436733246,-0.0003576625313144177,-0.1333465576171875,0.987213134765625,-0.0600128173828125
17.7,0.005876531358808279,0.010367952287197113,0.013035907410085201,-0.1298828125,0.9848785400390625,-0.0615081787109375
17.72,0.017560884356498718,-0.047986701130867004,0.025916019454598427,-0.1326446533203125,0.9871368408203125,-0.06201171875
17.74,0.019810989499092102,-0.07390298694372177,0.02947586588561535,-0.14111328125,0.9866180419921875,-0.0604400634765625
17.76,0.01684076525270939,-0.05361742153763771,0.025657959282398224,-0.1427154541015625,0.9820098876953125,-0.0607147216796875
17.78,0.013119264505803585,-0.009380452334880829,0.013567207381129265,-0.14727783203125,0.981048583984375,-0.0611419677734375
17.8,-0.00039547940832562745,0.02292209304869175,0.01631745509803295,-0.1473541259765625,0.983154296875,-0.061767578125
17.82,-0.0030061763245612383,0.018732408061623573,0.005870938766747713,-0.146453857421875,0.9832611083984375,-0.0602874755859375
17.84,0.007217699196189642,0.009622267447412014,0.0034615767654031515,-0.1480560302734375,0.9834136962890625,-0.058837890625
17.86,0.013156281784176826,0.009727994911372662,-0.0032418658956885338,-0.151611328125,0.9830780029296875,-0.0602874755859375
17.88,0.01756700873374939,0.005023254547268152,-0.005885053426027298,-0.14959716796875,0.9808197021484375,-0.060302734375
17.9,0.01338611263781786,0.007513309828937054,-0.0008729841792955995,-0.1483917236328125,0.982696533203125,-0.0610198974609375
17.92,0.004985969979315996,0.021555891260504723,0.001427720650099218,-0.142822265625,0.9849090576171875,-0.0596771240234375
17.94,0.0024109596852213144,0.029864687472581863,0.005329784471541643,-0.1360321044921875,0.982940673828125,-0.0586700439453125
17.96,0.0003909520455636084,0.022433936595916748,0.007840080186724663,-0.13427734375,0.98529052734375,-0.0588836669921875
17.98,-0.001797101111151278,0.002142246812582016,0.011835088022053242,-0.1363525390625,0.98516845703125,-0.0597076416015625
18,0.004485828336328268,-0.010661166161298752,0.013449495658278465,-0.1366729736328125,0.984222412109375,-0.05950927734375
18.02,0.005356681998819113,-0.021498899906873703,0.011406851932406425,-0.1381683349609375,0.9849853515625,-0.0613250732421875
18.04,0.004057325888425112,-0.008283762261271477,0.014696920290589333,-0.1420135498046875,0.985809326171875,-0.0631256103515625
18.06,0.004346811678260565,0.00452897185459733,0.012507535517215729,-0.14044189453125,0.9815826416015625,-0.0623931884765625
18.08,0.0031561122741550207,0.0062400526367127895,0.010277139022946358,-0.1439971923828125,0.9841156005859375,-0.063720703125
18.1,0.009387909434735775,0.0026349315885454416,0.004517786670476198,-0.145111083984375,0.9818572998046875,-0.0637359619140625
18.12,0.016095878556370735,0.007192398887127638,-0.0006404902087524533,-0.1482696533203125,0.982666015625,-0.064422607421875
18.14,0.016344351693987846,0.020687168464064598,-0.002548911375924945,-0.1462249755859375,0.98480224609375,-0.062042236328125
18.16,0.00245117349550128,0.03021329641342163,0.0020128171890974045,-0.1424407958984375,0.98443603515625,-0.0611114501953125
18.18,0.006431267596781254,0.03051742911338806,0.000020506340661086142,-0.141021728515625,0.98052978515625,-0.057830810546875
18.2,0.0067756143398582935,0.01441009808331728,-0.003201652318239212,-0.143798828125,0.982696533203125,-0.059967041015625
18.22,-0.005192098673433065,0.000755805114749819,-0.0035510589368641376,-0.1453704833984375,0.984161376953125,-0.0586090087890625
18.24,-0.00697881355881691,0.007652060594409704,-0.0026320021133869886,-0.1428985595703125,0.9818267822265625,-0.0579071044921875
18.26,-0.008588694036006927,0.011869442649185658,0.002010420197620988,-0.1390380859375,0.984527587890625,-0.0604400634765625
18.28,-0.01462634652853012,0.008141017518937588,0.005065598525106907,-0.139007568359375,0.985687255859375,-0.0610198974609375
18.3,-0.011875567957758904,0.012301407754421234,0.003897003596648574,-0.13580322265625,0.9849395751953125,-0.0611572265625
18.32,-0.005234709475189447,0.004058124963194132,0.007710383739322424,-0.138946533203125,0.982574462890625,-0.0623779296875
18.34,-0.008017180487513542,-0.014147777110338211,0.006494651082903147,-0.142364501953125,0.9828643798828125,-0.06439208984375
18.36,-0.006977482233196497,-0.028896097093820572,0.0038772961124777794,-0.1467132568359375,0.985382080078125,-0.063446044921875
18.38,-0.0013116068439558148,-0.016090819612145424,-0.0031968585681170225,-0.145416259765625,0.9849853515625,-0.06317138671875
18.4,-0.0011893677292391658,0.010245713405311108,-0.007985754869878292,-0.1457061767578125,0.9830780029296875,-0.0640106201171875
18.42,-0.004200603812932968,0.020920194685459137,-0.004978513345122337,-0.143768310546875,0.9834747314453125,-0.0655517578125
18.44,-0.013200224377214909,0.007893343456089497,-0.0078584561124444,-0.1403656005859375,0.9814605712890625,-0.061279296875
18.46,-0.005331115797162056,-0.00003941478280466981,-0.00896659679710865,-0.1438446044921875,0.984893798828125,-0.0615997314453125
18.48,0.004551608581095934,-0.004596349783241749,-0.009665410034358501,-0.1461029052734375,0.9847412109375,-0.0648193359375
18.5,-0.0017504957504570484,0.0005254416610114276,-0.0010871023405343294,-0.143524169921875,0.982421875,-0.0636138916015625
18.52,-0.0015630092239007354,0.0032290827948600054,0.0009840379934757948,-0.1399993896484375,0.9825592041015625,-0.0631561279296875
18.54,0.004853344522416592,-0.002642122097313404,0.0015907060587778687,-0.1429290771484375,0.98260498046875,-0.0627593994140625
18.56,-0.0012652678415179253,-0.014629010111093521,0.0014333132421597838,-0.1470184326171875,0.9839019775390625,-0.06341552734375
18.58,-0.000021837920940015465,-0.02081233821809292,0.0018130800453945994,-0.1490020751953125,0.9827880859375,-0.0607452392578125
18.6,-0.0004886900424025953,-0.010568488389253616,-0.002835467690601945,-0.149658203125,0.981903076171875,-0.05999755859375
18.62,-0.009064069017767906,-0.003212571144104004,-0.006698116194456816,-0.15069580078125,0.9826202392578125,-0.0606231689453125
18.64,-0.01335628516972065,0.002020274056121707,-0.008086955174803734,-0.1480255126953125,0.980987548828125,-0.05902099609375
18.66,-0.0008442220860160887,0.006603574380278587,-0.010306433774530888,-0.146270751953125,0.9825439453125,-0.0623321533203125
18.68,0.000467118457891047,-0.0029763488564640284,-0.013323262333869934,-0.1457061767578125,0.9842681884765625,-0.0623321533203125
18.7,-0.00794500857591629,-0.013480388559401035,-0.006998787168413401,-0.1404266357421875,0.9828033447265625,-0.060943603515625
18.72,-0.00974530540406704,-0.01107688620686531,-0.00752156600356102,-0.141326904296875,0.9832763671875,-0.0599365234375
18.74,0.00048123320448212326,0.01230593491345644,-0.008706938475370407,-0.1402130126953125,0.985992431640625,-0.061614990234375
18.76,-0.006684534251689911,0.014348845928907394,-0.008796420879662037,-0.13897705078125,0.984130859375,-0.0631866455078125
18.78,-0.016957411542534828,0.005140167195349932,-0.0011685950448736548,-0.140594482421875,0.9836578369140625,-0.062591552734375
18.8,-0.005604356061667204,-0.0026698189321905375,0.003198456484824419,-0.136260986328125,0.982147216796875,-0.0621185302734375
18.82,0.00421391986310482,-0.007960454560816288,0.0034818167332559824,-0.1391754150390625,0.984130859375,-0.065155029296875
18.84,-0.0015936355339363217,-0.01636326126754284,0.004618453793227673,-0.14288330078125,0.986419677734375,-0.0643157958984375
18.86,-0.0012900352012366056,-0.01056476030498743,-0.0007451524725183845,-0.1441650390625,0.985382080078125,-0.0629730224609375
18.88,0.012371715158224106,0.005112736485898495,-0.008080297149717808,-0.1483154296875,0.981903076171875,-0.0633544921875
18.9,0.017255686223506927,0.004851214122027159,-0.0043710460886359215,-0.1486968994140625,0.9806365966796875,-0.0634613037109375
18.92,0.0064989118836820126,-0.019179552793502808,-0.006742058787494898,-0.14739990234375,0.9812164306640625,-0.0603790283203125
18.94,0.003221093211323023,-0.015801865607500076,-0.009114402346313,-0.1490478515625,0.9833526611328125,-0.056243896484375
18.96,0.0032807481475174427,0.019885823130607605,-0.02021179534494877,-0.1471405029296875,0.9866943359375,-0.05841064453125
18.98,-0.015846872702240944,0.05204136297106743,-0.019881563261151314,-0.145111083984375,0.9845733642578125,-0.0587158203125
19,-0.02684333175420761,0.053463224321603775,-0.016288692131638527,-0.1381378173828125,0.981689453125,-0.057098388671875
19.02,-0.016744624823331833,0.03262452036142349,-0.0037292244378477335,-0.1351165771484375,0.983245849609375,-0.0576629638671875
19.04,0.0019345202017575502,-0.0006138586322776973,0.0049220542423427105,-0.132904052734375,0.9868316650390625,-0.0610198974609375
19.06,0.0028277444653213024,-0.03039013035595417,0.010213755071163177,-0.1366119384765625,0.9886016845703125,-0.0608367919921875
19.08,0.0010812433902174234,-0.03231159970164299,0.011026551946997643,-0.1407623291015625,0.9836883544921875,-0.0589447021484375
19.1,-0.0004269047058187425,-0.007648864760994911,0.008890164084732533,-0.1434783935546875,0.9824676513671875,-0.059234619140625
19.12,-0.015383483842015266,0.01601039245724678,0.0018745990237221122,-0.14617919921875,0.981048583984375,-0.059356689453125
19.14,-0.01611984707415104,0.02051273174583912,0.0022367890924215317,-0.1486968994140625,0.9842071533203125,-0.0572967529296875
19.16,-0.0000857537888805382,0.005212604999542236,-0.004343083128333092,-0.149505615234375,0.984100341796875,-0.05938720703125
19.18,0.005303951445966959,-0.009582852013409138,-0.0025531724095344543,-0.15234375,0.98272705078125,-0.0604705810546875
19.2,0.003453853540122509,-0.015685485675930977,-0.009678459726274014,-0.1555023193359375,0.9804840087890625,-0.0587005615234375
19.22,-0.006197974551469088,0.005084507167339325,-0.014635668136179447,-0.1568603515625,0.9795989990234375,-0.05511474609375
19.24,-0.005957757588475943,0.034742798656225204,-0.01926264353096485,-0.153717041015625,0.9809417724609375,-0.0548858642578125
19.26,-0.018729479983448982,0.04525216668844223,-0.018440525978803635,-0.149078369140625,0.9823760986328125,-0.05670166015625
19.28,-0.014488661661744118,0.03503095358610153,-0.019304189831018448,-0.1454925537109375,0.981353759765625,-0.057342529296875
19.3,0.002930009737610817,0.018637333065271378,-0.00932346098124981,-0.144744873046875,0.984710693359375,-0.058319091796875
19.32,-0.007481618318706751,-0.013519803062081337,-0.008343150839209557,-0.1417083740234375,0.9849090576171875,-0.056243896484375
19.34,-0.01110378373414278,-0.018727349117398262,-0.0034615767654031515,-0.14501953125,0.9809417724609375,-0.053192138671875
19.36,-0.005548163317143917,0.007672034204006195,-0.0006697850185446441,-0.1448974609375,0.98468017578125,-0.0556793212890625
19.38,-0.013484915718436241,0.01176424790173769,0.000630902883131057,-0.1416168212890625,0.9852294921875,-0.0587921142578125
19.4,-0.012487562373280525,-0.002344646956771612,0.008171643130481243,-0.141143798828125,0.983306884765625,-0.0567169189453125
19.42,0.0002969424531329423,-0.020299678668379784,0.005281847435981035,-0.1446533203125,0.984619140625,-0.05828857421875
19.44,0.0007366303470917046,-0.03803739696741104,0.007651794236153364,-0.147186279296875,0.9835968017578125,-0.059967041015625
19.46,-0.006442452780902386,-0.025441443547606468,0.0006831008358858526,-0.1494140625,0.9793548583984375,-0.058837890625
19.48,-0.00007669904152862728,0.015296132303774357,-0.0033654365688562393,-0.148956298828125,0.983489990234375,-0.057952880859375
19.5,-0.004852545913308859,0.03196379169821739,0.0003563309437595308,-0.1470184326171875,0.9843292236328125,-0.060943603515625
19.52,-0.007539941463619471,0.024651549756526947,-0.0019001654582098126,-0.1448974609375,0.9835968017578125,-0.0590972900390625
19.54,0.00612340634688735,0.01110112015157938,-0.005155347287654877,-0.1479644775390625,0.9843902587890625,-0.0575103759765625
19.56,0.008346080780029297,-0.005578523501753807,-0.002710299100726843,-0.1494903564453125,0.9813079833984375,-0.058197021484375
19.58,0.0073476615361869335,-0.019470637664198875,0.0012088088551536202,-0.1495819091796875,0.9821014404296875,-0.0561370849609375
19.6,0.013874536380171776,-0.00694925244897604,-0.00009400958515470847,-0.1480865478515625,0.9824676513671875,-0.055633544921875
19.62,0.009809753857553005,-0.005519667640328407,0.0028943235520273447,-0.1526947021484375,0.986724853515625,-0.055694580078125
19.64,-0.0013470269041135907,-0.021577997133135796,0.0006878945278003812,-0.152099609375,0.9799652099609375,-0.0539398193359375
19.66,-0.006935404147952795,-0.020133763551712036,-0.008460329845547676,-0.157073974609375,0.9795379638671875,-0.050811767578125
19.68,-0.016763001680374146,-0.004969724919646978,-0.017707623541355133,-0.1564483642578125,0.980255126953125,-0.053314208984375
19.7,-0.02323075383901596,0.026749055832624435,-0.019686618819832802,-0.1514129638671875,0.9832916259765625,-0.0540771484375
19.72,-0.021861622110009193,0.04814489185810089,-0.01667884550988674,-0.14447021484375,0.9845733642578125,-0.0569610595703125
19.74,-0.015719573944807053,0.050698064267635345,-0.011452924460172653,-0.1385345458984375,0.9827423095703125,-0.0574951171875
19.76,-0.002463157754391432,0.03798466548323631,-0.0021638183388859034,-0.1362457275390625,0.9853515625,-0.0601654052734375
19.78,0.009070460684597492,0.013201821595430374,0.0016682040877640247,-0.135589599609375,0.983673095703125,-0.0619354248046875
19.8,0.010730408132076263,-0.011019094847142696,0.003291400847956538,-0.1407318115234375,0.984832763671875,-0.0586700439453125
19.82,0.016652213409543037,-0.0021880532149225473,0.006849650293588638,-0.14288330078125,0.9873504638671875,-0.0565948486328125
19.84,0.013712616637349129,0.013113937340676785,0.008854477666318417,-0.1418914794921875,0.9831390380859375,-0.0556640625
19.86,0.009967945516109467,0.02243819646537304,0.009739712812006474,-0.1462860107421875,0.9845123291015625,-0.0527801513671875
19.88,0.00324799120426178,0.011217767372727394,0.006208094768226147,-0.148529052734375,0.982208251953125,-0.051788330078125
19.9,-0.004248274490237236,-0.008598015643656254,0.006214220076799393,-0.1559600830078125,0.9791259765625,-0.05078125
19.92,-0.008791627362370491,-0.0076155755668878555,-0.003266633255407214,-0.1584320068359375,0.9823760986328125,-0.0511322021484375
19.94,-0.02135695330798626,0.014967763796448708,-0.006077866069972515,-0.1589813232421875,0.982696533203125,-0.0518798828125
19.96,-0.03105591982603073,0.04980111122131348,-0.009866212494671345,-0.1530609130859375,0.9818572998046875,-0.0527801513671875
19.98,-0.026809776201844215,0.05566246435046196,-0.0008077367674559355,-0.1478424072265625,0.98187255859375,-0.054718017578125
20,-0.014034858904778957,0.02594025433063507,0.0017805894603952765,-0.142059326171875,0.9827423095703125,-0.0595703125
20.02,0.009195095859467983,0.0014937670202925801,0.011024687439203262,-0.145477294921875,0.9850311279296875,-0.0605316162109375
20.04,0.012179434299468994,-0.005124188028275967,0.009590841829776764,-0.1447906494140625,0.98248291015625,-0.0601348876953125
20.06,0.010366620495915413,0.0016591493040323257,0.011028150096535683,-0.1505584716796875,0.9831085205078125,-0.060089111328125
20.08,0.0214187391102314,0.019877567887306213,0.007368966471403837,-0.1501007080078125,0.9802398681640625,-0.0578460693359375
20.1,0.013598899357020855,0.013046293519437313,0.001928128651343286,-0.150054931640625,0.980926513671875,-0.0589447021484375
20.12,0.004998220596462488,0.000871652620844543,0.0006732470938004553,-0.1568603515625,0.9837188720703125,-0.052978515625
20.14,0.011216435581445694,0.01218848954886198,-0.0010596717474982142,-0.1535797119140625,0.982208251953125,-0.051544189453125
20.16,0.004461327567696571,0.019413910806179047,-0.0026253440883010626,-0.152496337890625,0.9807586669921875,-0.0550689697265625
20.18,-0.0011475561186671257,0.014126204885542393,0.0022034994326531887,-0.1505889892578125,0.9821319580078125,-0.0519256591796875
20.2,0.0015454323729500175,0.0052291168831288815,0.0016026903176680207,-0.14862060546875,0.983642578125,-0.0525360107421875
20.22,0.0033968619536608458,0.016162991523742676,0.0018490327056497335,-0.1460723876953125,0.9834442138671875,-0.054168701171875
20.24,-0.012584500946104527,0.018001902848482132,0.008383098058402538,-0.1427154541015625,0.984130859375,-0.0551605224609375
20.26,-0.010735735297203064,0.01398798730224371,0.01703357882797718,-0.137847900390625,0.9834136962890625,-0.051910400390625
20.28,0.004742557182908058,-0.00011904330312972888,0.0181137565523386,-0.14111328125,0.9824981689453125,-0.059478759765625
20.3,0.01022653840482235,-0.022998793050646782,0.011408981867134571,-0.1485595703125,0.9855499267578125,-0.0606689453125
20.32,0.015320366248488426,-0.032046351581811905,0.009010273031890392,-0.1540069580078125,0.982421875,-0.056793212890625
20.34,0.009373794309794903,-0.018621355295181274,0.00765791954472661,-0.155059814453125,0.9809417724609375,-0.0562744140625
20.36,0.004349208436906338,-0.008901615627110004,0.0013731258222833276,-0.155853271484375,0.9780731201171875,-0.0557403564453125
20.38,-0.0009369000908918679,0.015868712216615677,-0.003777693957090378,-0.1545257568359375,0.9827117919921875,-0.054718017578125
20.4,0.0038746329955756664,0.035225629806518555,-0.0018346516881138086,-0.1509552001953125,0.9829559326171875,-0.0574188232421875
20.42,0.007664311211556196,0.030789338052272797,-0.0052054147236049175,-0.14501953125,0.982879638671875,-0.057098388671875
20.44,0.00037497308221645653,0.01798965223133564,-0.005612878128886223,-0.1475677490234375,0.984893798828125,-0.056182861328125
20.46,0.009133044630289078,0.017016267403960228,-0.0026487798895686865,-0.1436614990234375,0.983062744140625,-0.0557861328125
20.48,0.004247741773724556,-0.004673315212130547,0.00797430332750082,-0.14068603515625,0.983489990234375,-0.0584564208984375
20.5,-0.0031364047899842262,-0.02237667888402939,0.010556504130363464,-0.1395416259765625,0.9818572998046875,-0.05438232421875
20.52,0.004285026341676712,-0.015236477367579937,0.020712202414870262,-0.1409454345703125,0.9830169677734375,-0.056304931640625
20.54,0.009860087186098099,-0.005572398193180561,0.015060176141560078,-0.13958740234375,0.9861907958984375,-0.0612640380859375
20.56,0.007875233888626099,0.012148275971412659,0.014208762906491756,-0.14599609375,0.9835205078125,-0.05804443359375
20.58,-0.002228266792371869,0.018986741080880165,0.012960805557668209,-0.1447296142578125,0.983245849609375,-0.0593719482421875
20.6,-0.004823783412575722,0.015368036925792694,0.01266759168356657,-0.1469268798828125,0.9812774658203125,-0.0574188232421875
20.62,0.005860285833477974,0.0010820423485711217,0.00987340323626995,-0.1484527587890625,0.9825592041015625,-0.0594635009765625
20.64,0.010723218321800232,0.004087686073035002,0.008436361327767372,-0.14886474609375,0.9816436767578125,-0.0598602294921875
20.66,0.01145931612700224,0.02231729030609131,0.0062850601971149445,-0.144775390625,0.98492431640625,-0.0617828369140625
20.68,0.01552569679915905,0.02935629151761532,0.01022893562912941,-0.144866943359375,0.9818572998046875,-0.061614990234375
20.7,0.01762453280389309,0.01661652699112892,0.01028566062450409,-0.142425537109375,0.9830474853515625,-0.063140869140625
20.72,0.01889432966709137,-0.0020594224333763123,0.015268967486917973,-0.144989013671875,0.9843597412109375,-0.059661865234375
20.74,0.026708044111728668,-0.012761068530380726,0.01022840291261673,-0.146331787109375,0.982696533203125,-0.0590362548828125
20.76,0.019656792283058167,-0.003906590864062309,0.008072840049862862,-0.1481170654296875,0.9849395751953125,-0.059173583984375
20.78,-0.004055728204548359,0.011905661784112453,0.0068360683508217335,-0.1443634033203125,0.987213134765625,-0.0565948486328125
20.8,-0.011384214274585247,0.033967286348342896,0.009184443391859531,-0.1401824951171875,0.9816436767578125,-0.0529022216796875
20.82,-0.003555852686986327,0.03544401004910469,0.009720005095005035,-0.137908935546875,0.984222412109375,-0.0582733154296875
20.84,0.001695900922641158,0.007930627092719078,0.01375069934874773,-0.13922119140625,0.985107421875,-0.0630645751953125
20.86,0.007006244268268347,-0.02225710265338421,0.019839750602841377,-0.142730712890625,0.985107421875,-0.062164306640625
20.88,0.007513576187193394,-0.02700631693005562,0.019574500620365143,-0.1423797607421875,0.9864654541015625,-0.062744140625
20.9,0.0049585397355258465,-0.016594156622886658,0.017764883115887642,-0.1439208984375,0.9872283935546875,-0.0631256103515625
20.92,0.009153550490736961,-0.004068244714289904,0.011422564275562763,-0.14483642578125,0.9810791015625,-0.06256103515625
20.94,0.015743542462587357,-0.002133192028850317,0.009534383192658424,-0.1458587646484375,0.979827880859375,-0.062957763671875
20.96,0.012261992320418358,-0.002612294629216194,0.006713029928505421,-0.145233154296875,0.982208251953125,-0.06256103515625
20.98,0.009969010949134827,0.010753843933343887,0.005635781679302454,-0.14654541015625,0.9842681884765625,-0.0610809326171875
21,0.009663546457886696,0.022653114050626755,0.0020487697329372168,-0.144775390625,0.9817352294921875,-0.06024169921875
21.02,0.010335462167859077,0.014889467507600784,-0.0008391620358452201,-0.141693115234375,0.98370361328125,-0.062774658203125
21.04,0.0044203149154782295,0.010424677282571793,-0.0012282498646527529,-0.1402435302734375,0.9850311279296875,-0.0633544921875
21.06,-0.0059540290385484695,0.025123462080955505,0.0013558153295889497,-0.1374053955078125,0.9841461181640625,-0.0601959228515625
21.08,0.0005286374944262207,0.04751398786902428,0.004317516926676035,-0.134033203125,0.9855194091796875,-0.061859130859375
21.1,0.005067729391157627,0.03393399715423584,0.012325908057391644,-0.1319427490234375,0.9836578369140625,-0.063568115234375
21.12,0.007001450285315514,-0.0002388855500612408,0.022486666217446327,-0.131134033203125,0.983428955078125,-0.06451416015625
21.14,0.0006418218254111707,-0.029994117096066475,0.03013686276972294,-0.1321258544921875,0.9847869873046875,-0.0608062744140625
21.16,0.014060957357287407,-0.042513370513916016,0.03237232193350792,-0.138397216796875,0.9846649169921875,-0.06146240234375
21.18,0.02136467769742012,-0.04661517217755318,0.024644626304507256,-0.141265869140625,0.98455810546875,-0.0667572021484375
21.2,0.008232363499701023,-0.027451330795884132,0.017174992710351944,-0.1471710205078125,0.9884033203125,-0.0649261474609375
21.22,0.0022831279784440994,0.00625975988805294,0.011195928789675236,-0.1434478759765625,0.9808807373046875,-0.0650634765625
21.24,0.009573531337082386,0.024397751316428185,0.0049532135017216206,-0.1407470703125,0.980438232421875,-0.0640106201171875
21.26,0.00797563511878252,0.02033296786248684,0.007062170654535294,-0.1383056640625,0.9845428466796875,-0.0645599365234375
21.28,0.003897003596648574,0.0028067054226994514,0.008837433531880379,-0.139312744140625,0.987213134765625,-0.0628814697265625
21.3,0.010426009073853493,-0.009339706040918827,0.009214004501700401,-0.1406707763671875,0.981475830078125,-0.062469482421875
21.32,0.02635970152914524,-0.019881030544638634,0.007790278643369675,-0.1425933837890625,0.9843292236328125,-0.0646514892578125
21.34,0.017254887148737907,-0.02075294964015484,0.0051960935816168785,-0.1412200927734375,0.9828033447265625,-0.0664215087890625
21.36,0.0018932411912828684,-0.005361742340028286,0.0009584716754034162,-0.135528564453125,0.9835052490234375,-0.0615692138671875
21.38,-0.011211908422410488,0.03189694508910179,0.0004471447318792343,-0.13397216796875,0.986480712890625,-0.0598907470703125
21.4,-0.022121813148260117,0.046899862587451935,0.0005752427969127893,-0.13092041015625,0.9901885986328125,-0.0609130859375
21.42,-0.011751198209822178,0.030316093936562538,0.00481313094496727,-0.1307830810546875,0.9844970703125,-0.06365966796875
21.44,0.0015140071045607328,-0.007523962762206793,0.01079858560115099,-0.130950927734375,0.98321533203125,-0.066162109375
21.46,0.012989568524062634,-0.034687139093875885,0.012312859296798706,-0.1321868896484375,0.9864349365234375,-0.0661163330078125
21.48,0.015313442796468735,-0.03291746973991394,0.01315388549119234,-0.134979248046875,0.9872283935546875,-0.0682525634765625
21.5,0.004203000571578741,-0.014192251488566399,0.007059241179376841,-0.134857177734375,0.982086181640625,-0.066925048828125
21.52,0.00373108871281147,0.015262842178344727,0.00589650496840477,-0.138153076171875,0.982269287109375,-0.063507080078125
21.54,0.0002892192860599607,0.010261159390211105,0.0004423510399647057,-0.138153076171875,0.982269287109375,-0.063507080078125
21.56,-0.0025811356026679277,-0.005341502372175455,-0.006779609248042107,-0.14324951171875,0.9832305908203125,-0.0640716552734375
21.58,0.003641340183094144,-0.007190268486738205,-0.008934106677770615,-0.143646240234375,0.986480712890625,-0.0617218017578125
21.6,0.0016900419723242521,-0.000734766130335629,-0.00905474741011858,-0.1387176513671875,0.9834747314453125,-0.0630950927734375
21.62,-0.00370099488645792,0.010570352897047997,-0.006795055698603392,-0.1355743408203125,0.9838409423828125,-0.066070556640625
21.64,-0.0103154880926013,0.01563888043165207,-0.001201884588226676,-0.1289520263671875,0.9894256591796875,-0.065216064453125
21.66,-0.0032626385800540447,0.009935721755027771,-0.000803209375590086,-0.1246795654296875,0.9837646484375,-0.0635833740234375
21.68,-0.0024375913199037313,-0.012320049107074738,0.004128965083509684,-0.128570556640625,0.98651123046875,-0.0667724609375
21.7,-0.004048803821206093,-0.045042041689157486,0.004040548112243414,-0.131103515625,0.9888763427734375,-0.06488037109375
21.72,-0.004314054735004902,-0.04534777253866196,0.0022679478861391544,-0.13885498046875,0.9843597412109375,-0.0625
21.74,-0.0044054011814296246,-0.010493653826415539,-0.000749679864384234,-0.13665771484375,0.98486328125,-0.0647430419921875
21.76,-0.005754292011260986,0.014856976456940174,-0.00512738386169076,-0.1361083984375,0.981597900390625,-0.066131591796875
21.78,-0.010871822014451027,0.023668577894568443,-0.005050951149314642,-0.1360321044921875,0.9834442138671875,-0.06689453125
21.8,-0.01943175494670868,0.027034014463424683,-0.007422762457281351,-0.1371917724609375,0.9882659912109375,-0.06494140625
21.82,-0.008264055475592613,0.04332004487514496,-0.011276623234152794,-0.1367340087890625,0.986358642578125,-0.0629730224609375
21.84,-0.0046911584213376045,0.03909307345747948,-0.006985737942159176,-0.1375579833984375,0.9860382080078125,-0.0667572021484375
21.86,-0.003850131994113326,0.00010093380114994943,-0.003522296901792288,-0.1343536376953125,0.9813232421875,-0.06585693359375
21.88,0.0018817896489053965,-0.0065050371922552586,-0.0019180085510015488,-0.13775634765625,0.9859771728515625,-0.06182861328125
21.9,0.008976184763014317,-0.00014034859486855567,0.0005033374181948602,-0.1359405517578125,0.98406982421875,-0.064697265625
21.92,0.006943659856915474,0.010116017423570156,0.001660214620642364,-0.135528564453125,0.984649658203125,-0.0649871826171875
21.94,0.00008149272616719827,0.01143667846918106,0.003728159237653017,-0.134246826171875,0.983795166015625,-0.062255859375
21.96,-0.0009574064170010388,0.008927182294428349,0.0068312743678689,-0.133575439453125,0.983734130859375,-0.0612030029296875
21.98,-0.0005643238546326756,-0.0028756812680512667,0.006028064992278814,-0.137298583984375,0.983642578125,-0.0608673095703125
22,0.0035167040769010782,-0.017104685306549072,-0.001350755337625742,-0.14044189453125,0.98565673828125,-0.0615081787109375
22.02,0.0012010856298729777,-0.013399961404502392,-0.007139136083424091,-0.144927978515625,0.9822540283203125,-0.060638427734375
22.04,-0.00256462418474257,0.004073305055499077,-0.009017197415232658,-0.14593505859375,0.9834136962890625,-0.0608978271484375
22.06,-0.009616674855351448,0.010191651061177254,-0.0027920580469071865,-0.137939453125,0.9803619384765625,-0.0608062744140625
22.08,-0.007296528667211533,0.003916977439075708,0.0012460930738598108,-0.135528564453125,0.9830169677734375,-0.0615386962890625
22.1,-0.004449343308806419,-0.011574097909033298,-0.003165166825056076,-0.138641357421875,0.985687255859375,-0.061553955078125
22.12,0.0015249260468408465,-0.016475113108754158,-0.007969509810209274,-0.1422576904296875,0.9840240478515625,-0.0616455078125
22.14,0.00030120351584628224,-0.008924785070121288,-0.013224725611507893,-0.14404296875,0.984771728515625,-0.0623016357421875
22.16,-0.002180329989641905,0.00860387459397316,-0.016619456931948662,-0.141876220703125,0.9853057861328125,-0.06390380859375
22.18,-0.01113600842654705,0.029569078236818314,-0.011126154102385044,-0.1334991455078125,0.98345947265625,-0.06109619140625
22.2,-0.012319516390562057,0.03118029050529003,-0.0038605183362960815,-0.1287384033203125,0.9823455810546875,-0.061981201171875
22.22,0.005350823048502207,0.009240636602044106,0.004168912302702665,-0.1298065185546875,0.98480224609375,-0.062835693359375
22.24,0.011604990810155869,-0.03497343137860298,0.0010436928132548928,-0.134246826171875,0.98486328125,-0.0638275146484375
22.26,0.014019944705069065,-0.04008137434720993,0.004762797150760889,-0.1411895751953125,0.9861907958984375,-0.0619354248046875
22.28,0.011062504723668098,-0.010999654419720173,-0.00041092574247159064,-0.1414337158203125,0.9852447509765625,-0.0618438720703125
22.3,-0.0003635214816313237,0.00436092633754015,-0.0031435952987521887,-0.139068603515625,0.98333740234375,-0.0630645751953125
22.32,-0.004399808589369059,0.006699447985738516,-0.0054360441863536835,-0.14044189453125,0.9819488525390625,-0.061492919921875
22.34,-0.00020746025256812572,0.0017547567840665579,-0.007198524195700884,-0.1430816650390625,0.9850311279296875,-0.05963134765625
22.36,-0.007791876792907715,-0.0012120045721530914,-0.008876316249370575,-0.1443634033203125,0.983612060546875,-0.059814453125
22.38,-0.01642877422273159,0.0015808524331077933,-0.009760485030710697,-0.1407623291015625,0.9844970703125,-0.0608367919921875
22.4,-0.008640360087156296,0.0073138391599059105,-0.010260093957185745,-0.1407318115234375,0.9825897216796875,-0.0603179931640625
22.42,0.00242107966914773,0.008262190967798233,-0.011433216743171215,-0.1408843994140625,0.9850006103515625,-0.0657196044921875
22.44,0.004191549029201269,-0.003896737238392234,-0.006447513122111559,-0.1380615234375,0.98626708984375,-0.064727783203125
22.46,-0.0020596887916326523,-0.015050588175654411,-0.002772883279249072,-0.13543701171875,0.985931396484375,-0.0634002685546875
22.48,-0.001344630029052496,-0.015559252351522446,-0.004226436838507652,-0.1377716064453125,0.985565185546875,-0.0612640380859375
22.5,0.01119086891412735,0.000031691615731688216,-0.006089317612349987,-0.1382598876953125,0.9829559326171875,-0.0615234375
22.52,0.0014985607704147696,0.002703907433897257,-0.003967843484133482,-0.1408538818359375,0.9849700927734375,-0.0644989013671875
22.54,-0.013427658006548882,-0.011205783113837242,0.00021891183860134333,-0.137603759765625,0.98419189453125,-0.06170654296875
22.56,-0.008749815635383129,-0.00152332813013345,0.0003094593121204525,-0.13812255859375,0.982818603515625,-0.06005859375
22.58,0.006104764062911272,0.009078449569642544,-0.0014974954538047314,-0.136932373046875,0.9830322265625,-0.0637664794921875
22.6,0.008953547105193138,-0.009043562225997448,0.004143878817558289,-0.1407012939453125,0.9846954345703125,-0.0656585693359375
22.62,0.0033936661202460527,-0.05083281919360161,-0.000811997801065445,-0.1446685791015625,0.9860687255859375,-0.0636138916015625
22.64,0.007700530346482992,-0.050448525696992874,-0.006054696626961231,-0.148529052734375,0.980682373046875,-0.0596771240234375
22.66,0.005254683084785938,-0.009548231028020382,-0.014603976160287857,-0.14764404296875,0.982513427734375,-0.0607147216796875
22.68,-0.015483885072171688,0.03561711683869362,-0.018922025337815285,-0.144744873046875,0.986358642578125,-0.060333251953125
22.7,-0.0181110929697752,0.05432449281215668,-0.017523866146802902,-0.1395416259765625,0.98077392578125,-0.0582275390625
22.72,-0.008973521180450916,0.029516613110899925,-0.007838215678930283,-0.135833740234375,0.982696533203125,-0.0609588623046875
22.74,0.004835767671465874,-0.014838067814707756,-0.0025161546654999256,-0.1369171142578125,0.9874267578125,-0.0640411376953125
22.76,0.015918245539069176,-0.04641170799732208,-0.0014295848086476326,-0.139801025390625,0.9844207763671875,-0.062896728515625
22.78,0.019816048443317413,-0.046239934861660004,-0.0026162895374000072,-0.1448211669921875,0.984130859375,-0.0608978271484375
22.8,0.0073687005788087845,-0.015350460074841976,-0.004338289611041546,-0.1477203369140625,0.9824676513671875,-0.0613555908203125
22.82,-0.0026844663079828024,0.010600713081657887,-0.0070698936469852924,-0.144378662109375,0.981353759765625,-0.0590362548828125
22.84,-0.012012987397611141,0.009514142759144306,-0.009102950803935528,-0.146942138671875,0.9837799072265625,-0.058563232421875
22.86,-0.01386681292206049,-0.010654508136212826,-0.0075572519563138485,-0.1457672119140625,0.9841766357421875,-0.0571441650390625
22.88,-0.005872536450624466,-0.013317936100065708,-0.010713896714150906,-0.1494293212890625,0.9828948974609375,-0.0582275390625
22.9,-0.001478587044402957,-0.011583153158426285,-0.013696370646357536,-0.1483612060546875,0.981842041015625,-0.0608062744140625
22.92,-0.007454986684024334,0.005556685384362936,-0.014869759790599346,-0.146453857421875,0.9843292236328125,-0.0620574951171875
22.94,-0.0062371231615543365,0.011185276322066784,-0.004442418925464153,-0.1439056396484375,0.9834747314453125,-0.0620880126953125
22.96,-0.0029944581910967827,0.0054421694949269295,-0.00018668759730644524,-0.13507080078125,0.9814910888671875,-0.061309814453125
22.98,0.0009614011505618691,-0.007200388703495264,0.0035297537688165903,-0.1385345458984375,0.9844970703125,-0.062164306640625
23,0.006779875606298447,-0.00823982059955597,0.0011203918838873506,-0.1423492431640625,0.9860076904296875,-0.0622406005859375
23.02,0.005032309330999851,-0.0013542174128815532,-0.0014418354257941246,-0.1421051025390625,0.9825897216796875,-0.0616607666015625
23.04,0.003183809109032154,0.006719155237078667,-0.0007869640830904245,-0.14385986328125,0.98333740234375,-0.0615386962890625
23.06,0.009957293048501015,0.013026585802435875,-0.00029401297797448933,-0.14276123046875,0.98187255859375,-0.06207275390625
23.08,0.004948153160512447,-0.0049620019271969795,0.004747350700199604,-0.1432647705078125,0.982391357421875,-0.06170654296875
23.1,0.005632585845887661,-0.01558029092848301,0.004777977243065834,-0.145050048828125,0.983795166015625,-0.059539794921875
23.12,-0.00021731393644586205,0.0007882956997491419,-0.0020274645648896694,-0.1477813720703125,0.9832916259765625,-0.0567474365234375
23.14,-0.005657352972775698,0.01531557273119688,-0.0014034858904778957,-0.1482391357421875,0.9834747314453125,-0.06024169921875
23.16,-0.00720491586253047,0.024055268615484238,-0.0020993698853999376,-0.1455078125,0.98291015625,-0.0600128173828125
23.18,-0.0010194580536335707,0.018099375069141388,0.0012072109384462237,-0.144378662109375,0.9805450439453125,-0.0606842041015625
23.2,-0.0020780644845217466,0.007735151331871748,0.0070461914874613285,-0.1407318115234375,0.984649658203125,-0.0626983642578125
23.22,-0.0008026767172850668,-0.0115573201328516,0.010479005984961987,-0.1399993896484375,0.98553466796875,-0.0603790283203125
23.24,0.009863549843430519,-0.029088376089930534,0.007524229120463133,-0.14532470703125,0.9817047119140625,-0.0606689453125
23.26,0.005705556366592646,-0.03630447760224342,0.003150519449263811,-0.1483001708984375,0.982940673828125,-0.0638275146484375
23.28,-0.004277835600078106,-0.018550781533122063,-0.0036663739010691643,-0.148406982421875,0.98272705078125,-0.0603179931640625
23.3,-0.0029763488564640284,0.021342840045690536,-0.007236607372760773,-0.1469879150390625,0.98431396484375,-0.0601959228515625
23.32,-0.00012410330236889422,0.033959031105041504,-0.003221892286092043,-0.142852783203125,0.9808349609375,-0.0622406005859375
23.34,-0.003457315731793642,0.01395975798368454,-0.001353684812784195,-0.1407928466796875,0.9829559326171875,-0.0630035400390625
23.36,0.001130778226070106,-0.016056997701525688,-0.0024495755787938833,-0.1440887451171875,0.9810943603515625,-0.061431884765625
23.38,0.009034774266183376,-0.015659119933843613,-0.00350392097607255,-0.1467742919921875,0.9805450439453125,-0.0616455078125
23.4,-0.005034972447901964,-0.003172091208398342,-0.00638013519346714,-0.144775390625,0.9865570068359375,-0.0626678466796875
23.42,-0.014915033243596554,0.03381521999835968,-0.006287723314017057,-0.140869140625,0.9850921630859375,-0.061279296875
23.44,-0.008955145254731178,0.05494048073887825,-0.0003028014034498483,-0.1336517333984375,0.9807281494140625,-0.0625457763671875
23.46,-0.0043651871383190155,0.02835201285779476,0.014609835110604763,-0.1317901611328125,0.984893798828125,-0.0662384033203125
23.48,0.0012428972404450178,-0.025966620072722435,0.02087731845676899,-0.1368255615234375,0.984649658203125,-0.064300537109375
23.5,0.008901615627110004,-0.051052264869213104,0.020440826192498207,-0.1444854736328125,0.9849395751953125,-0.0640411376953125
23.52,0.01281912624835968,-0.03526771068572998,0.007315703667700291,-0.151214599609375,0.9780120849609375,-0.062103271484375
23.54,0.007833155803382397,0.02220490388572216,0.0002556634717620909,-0.1550445556640625,0.986175537109375,-0.0653839111328125
23.56,-0.007164435926824808,0.06011606752872467,-0.005076517816632986,-0.14630126953125,0.98101806640625,-0.06292724609375
23.58,-0.009939449839293957,0.0740894079208374,-0.004845088813453913,-0.1426849365234375,0.980621337890625,-0.0621337890625
23.6,0.006235791835933924,0.06004496291279793,-0.0021465078461915255,-0.140289306640625,0.98736572265625,-0.063629150390625
23.62,0.008208128623664379,0.028087293729186058,-0.0017219999572262168,-0.1433563232421875,0.9838104248046875,-0.0630950927734375
23.64,0.012183429673314095,0.009858489967882633,-0.0017182715237140656,-0.1470489501953125,0.9826202392578125,-0.0589752197265625
23.66,0.012212458066642284,-0.00461632339283824,-0.0022778017446398735,-0.15093994140625,0.984222412109375,-0.05908203125
23.68,-0.0037944719661027193,-0.02454236149787903,-0.005769738461822271,-0.1507415771484375,0.983062744140625,-0.0568695068359375
23.7,-0.02105148881673813,-0.02057398483157158,-0.013792511075735092,-0.148956298828125,0.97845458984375,-0.0550537109375
23.72,-0.011683819815516472,0.02839622087776661,-0.012076903134584427,-0.1488189697265625,0.98492431640625,-0.057281494140625
23.74,-0.014917164109647274,0.08870856463909149,-0.011098191142082214,-0.138671875,0.9858551025390625,-0.0623016357421875
23.76,-0.03389991074800491,0.10676106810569763,0.005277319811284542,-0.13140869140625,0.9816741943359375,-0.0643310546875
23.78,-0.026204971596598625,0.08077181130647659,0.017246099188923836,-0.12744140625,0.984222412109375,-0.0614013671875
23.8,0.0007222492713481188,0.031084416434168816,0.02558179199695587,-0.130035400390625,0.9846649169921875,-0.06695556640625
23.82,0.01828819327056408,-0.03651007264852524,0.030580813065171242,-0.13775634765625,0.9864349365234375,-0.067352294921875
23.84,0.027297934517264366,-0.06777478754520416,0.02972620353102684,-0.143402099609375,0.9849853515625,-0.0645904541015625
23.86,0.03634495660662651,-0.04182014986872673,0.03032381646335125,-0.1475067138671875,0.983428955078125,-0.0645751953125
23.88,0.03044685535132885,-0.00785499345511198,0.02148664928972721,-0.1465301513671875,0.981903076171875,-0.063018798828125
23.9,0.02166854403913021,0.0059873186983168125,0.016452742740511894,-0.1479949951171875,0.9805908203125,-0.059906005859375
23.92,0.015544870868325233,-0.0014349111588671803,0.009223326109349728,-0.1563568115234375,0.983154296875,-0.056610107421875
23.94,0.013075588271021843,-0.00643712654709816,-0.004607002250850201,-0.1563568115234375,0.983154296875,-0.056610107421875
23.96,-0.0014793860027566552,0.013101687654852867,-0.010251838713884354,-0.15899658203125,0.9838104248046875,-0.0531158447265625
23.98,-0.010906177572906017,0.033662889152765274,-0.011625230312347412,-0.152496337890625,0.9815216064453125,-0.0526275634765625
24,-0.01188249234110117,0.05507603660225868,-0.013905162923038006,-0.144805908203125,0.9824676513671875,-0.055816650390625
24.02,-0.01944054290652275,0.053575608879327774,-0.0035260252188891172,-0.137725830078125,0.9866485595703125,-0.058746337890625
24.04,-0.028192488476634026,0.017849037423729897,0.007736216764897108,-0.1280670166015625,0.9848480224609375,-0.0606842041015625
24.06,-0.00929256808012724,-0.009544502943754196,0.014906778000295162,-0.1280670166015625,0.9848480224609375,-0.0606842041015625
24.08,0.0019536949694156647,-0.030555512756109238,0.02594318427145481,-0.131134033203125,0.986083984375,-0.0634613037109375
24.1,0.00947845634073019,-0.049547046422958374,0.028907814994454384,-0.1355133056640625,0.986114501953125,-0.06756591796875
24.12,0.012212724424898624,-0.05408880114555359,0.026503778994083405,-0.1373443603515625,0.982696533203125,-0.0648345947265625
24.14,0.016155533492565155,-0.028922993689775467,0.018990734592080116,-0.1423492431640625,0.983642578125,-0.06573486328125
24.16,0.00920042209327221,0.003221093211323023,0.009703493677079678,-0.1452484130859375,0.9837188720703125,-0.065826416015625
24.18,0.00009454221435589716,0.037797711789608,0.0004444815858732909,-0.1469573974609375,0.981201171875,-0.0616912841796875
24.2,0.0007068029372021556,0.06828930974006653,-0.00493217445909977,-0.1450347900390625,0.981842041015625,-0.0640411376953125
24.22,0.002679672557860613,0.07898855954408646,-0.009762349538505077,-0.1422119140625,0.9869537353515625,-0.0652008056640625
24.24,0.0026069683954119682,0.07302281260490417,0.0017006946727633476,-0.1358795166015625,0.985260009765625,-0.0655059814453125
24.26,0.009267534129321575,0.036792367696762085,0.010721620172262192,-0.1302642822265625,0.98333740234375,-0.0642852783203125
24.28,0.012842562049627304,0.0022533005103468895,0.017140371724963188,-0.130279541015625,0.9869537353515625,-0.06353759765625
24.3,0.019568374380469322,-0.013946175575256348,0.021022461354732513,-0.1319122314453125,0.9825897216796875,-0.063690185546875
24.32,0.02117692492902279,-0.014594921842217445,0.022120481356978416,-0.1355133056640625,0.9845733642578125,-0.0628814697265625
24.34,0.019348664209246635,-0.00651568965986371,0.019210712984204292,-0.1382293701171875,0.9871673583984375,-0.061737060546875
24.36,0.0025779400020837784,-0.0023907197173684835,0.018091386184096336,-0.1404571533203125,0.9828033447265625,-0.0572052001953125
24.38,-0.005477589555084705,0.0007337008719332516,0.010773551650345325,-0.14215087890625,0.9805450439453125,-0.0577392578125
24.4,-0.004561462439596653,0.027212712913751602,0.007488542702049017,-0.1427154541015625,0.9841461181640625,-0.061920166015625
24.42,-0.01722106523811817,0.0367438979446888,-0.0038394792936742306,-0.1401214599609375,0.9868316650390625,-0.0649871826171875
24.44,-0.016536099836230278,0.04207981005311012,-0.0009190568816848099,-0.140167236328125,0.9835357666015625,-0.0618133544921875
24.46,-0.0035683694295585155,0.040706418454647064,0.003073820611461997,-0.134124755859375,0.984039306640625,-0.0667877197265625
24.48,-0.001606418751180172,0.024480042979121208,0.005144428461790085,-0.1301422119140625,0.9869384765625,-0.0682373046875
24.5,0.0012189288390800357,0.0017616810509935021,0.0173246618360281,-0.1306304931640625,0.982818603515625,-0.066009521484375
24.52,0.01679975353181362,-0.013407418504357338,0.020491426810622215,-0.1300506591796875,0.983734130859375,-0.0677490234375
24.54,0.02490215376019478,-0.029153624549508095,0.020551348105072975,-0.1364898681640625,0.983367919921875,-0.0684356689453125
24.56,0.016980048269033432,-0.04398982971906662,0.012617791071534157,-0.1457672119140625,0.9829864501953125,-0.067779541015625
24.58,0.011206848546862602,-0.02496766857802868,0.005536978133022785,-0.146240234375,0.983062744140625,-0.0626983642578125
24.6,0.004712729714810848,0.015527826733887196,-0.00708747049793601,-0.143218994140625,0.9835968017578125,-0.0653839111328125
24.62,-0.006819023750722408,0.05482196807861328,-0.007536745630204678,-0.1385040283203125,0.984039306640625,-0.06585693359375
24.64,-0.009815879166126251,0.06947947293519974,-0.003907656297087669,-0.1291961669921875,0.9846038818359375,-0.0664825439453125
24.66,-0.0019973707385361195,0.056470997631549835,0.000597879639826715,-0.1261138916015625,0.985809326171875,-0.0685272216796875
24.68,0.003677292726933956,0.025466743856668472,0.009223592467606068,-0.1242828369140625,0.985321044921875,-0.068450927734375
24.7,0.009729859419167042,-0.020611003041267395,0.01902269385755062,-0.1249542236328125,0.985443115234375,-0.06719970703125
24.72,0.015309181064367294,-0.0507689043879509,0.02851872704923153,-0.1270599365234375,0.986541748046875,-0.0674285888671875
24.74,0.02358655259013176,-0.05573569983243942,0.02725612185895443,-0.1272430419921875,0.9857635498046875,-0.069793701171875
24.76,0.017176058143377304,-0.03099040687084198,0.023016368970274925,-0.1328277587890625,0.98638916015625,-0.0689544677734375
24.78,0.012328305281698704,-0.003373426152393222,0.019844811409711838,-0.131591796875,0.98138427734375,-0.067047119140625
24.8,0.013361877761781216,0.019102055579423904,0.0213572196662426,-0.131439208984375,0.9824981689453125,-0.0662078857421875
24.82,0.010350109077990055,0.02159424126148224,0.017233582213521004,-0.13214111328125,0.9886016845703125,-0.0693817138671875
24.84,0.014964834786951542,0.017246631905436516,0.012489693239331245,-0.1352996826171875,0.985107421875,-0.0692138671875
24.86,0.01678350754082203,0.010735202580690384,0.009726130403578281,-0.135894775390625,0.9830169677734375,-0.0698089599609375
24.88,0.020012058317661285,-0.00003888214996550232,0.009199623949825764,-0.1350250244140625,0.986328125,-0.0701446533203125
24.9,0.011374094523489475,-0.01613662578165531,0.011656655929982662,-0.1351470947265625,0.9849395751953125,-0.0681610107421875
24.92,0.008971656672656536,-0.018202971667051315,0.014576812274754047,-0.133270263671875,0.9824981689453125,-0.0656890869140625
24.94,0.007507450878620148,-0.010432400740683079,0.007788148242980242,-0.1323699951171875,0.983123779296875,-0.066925048828125
24.96,0.0008338357438333333,0.004817658569663763,0.006788397673517466,-0.1360626220703125,0.9857177734375,-0.0691986083984375
24.98,-0.010085923597216606,0.010423879139125347,0.0025542378425598145,-0.1330718994140625,0.9835357666015625,-0.0677337646484375
25,-0.006302104331552982,0.00654525076970458,0.0009898969437927008,-0.13140869140625,0.983154296875,-0.0690460205078125
25.02,-0.0037614486645907164,0.017045030370354652,0.000502804818097502,-0.1319580078125,0.98419189453125,-0.0713043212890625
25.04,-0.0031555795576423407,0.02550802379846573,0.00558278476819396,-0.1259002685546875,0.9879150390625,-0.0736083984375
25.06,-0.0022309301421046257,0.02285684645175934,0.008733304217457771,-0.12255859375,0.9833984375,-0.0711822509765625
25.08,0.005096757784485817,-0.0034993935842067003,0.016699085012078285,-0.124847412109375,0.98486328125,-0.07330322265625
25.1,0.009929330088198185,-0.032339829951524734,0.011771705001592636,-0.12835693359375,0.9863128662109375,-0.0735931396484375
25.12,0.018063955008983612,-0.0370006300508976,0.010295247659087181,-0.13336181640625,0.98504638671875,-0.072845458984375
25.14,0.022042717784643173,-0.017059676349163055,0.002430134452879429,-0.1352996826171875,0.9836883544921875,-0.0729522705078125
25.16,0.014888668432831764,0.0037318875547498465,0.0005342300864867866,-0.1358642578125,0.9845428466796875,-0.071075439453125
25.18,0.001746501075103879,0.01167423278093338,-0.004504470620304346,-0.135009765625,0.983551025390625,-0.0675506591796875
25.2,-0.0075995963998138905,0.025058748200535774,-0.008305334486067295,-0.134246826171875,0.9846038818359375,-0.065673828125
25.22,-0.006563626695424318,0.03707652911543846,-0.0121304327622056,-0.133392333984375,0.9842376708984375,-0.067138671875
25.24,-0.013335246592760086,0.0311637781560421,-0.013924604281783104,-0.1334991455078125,0.9861602783203125,-0.0695343017578125
25.26,-0.013853764161467552,0.02852724865078926,-0.010337592102587223,-0.131561279296875,0.985595703125,-0.06854248046875
25.28,-0.01944560371339321,0.020258400589227676,-0.005016330163925886,-0.12396240234375,0.984222412109375,-0.0687408447265625
25.3,-0.019749736413359642,0.012113387696444988,0.006690126843750477,-0.12213134765625,0.9849090576171875,-0.070556640625
25.32,-0.012686233967542648,-0.009819074533879757,0.006264820229262114,-0.1207275390625,0.9873504638671875,-0.073455810546875
25.34,-0.002980876248329878,-0.024337830021977425,0.01044545043259859,-0.1255645751953125,0.98602294921875,-0.0745391845703125
25.36,0.006827545817941427,-0.03351907804608345,0.002921754028648138,-0.1305084228515625,0.98291015625,-0.0734405517578125
25.38,0.003964381758123636,-0.009602293372154236,-0.004531634971499443,-0.1369781494140625,0.98590087890625,-0.0726165771484375
25.4,-0.005603291094303131,0.02057877741754055,-0.008421980775892735,-0.1368865966796875,0.9843597412109375,-0.0713958740234375
25.42,-0.009319731965661049,0.047023966908454895,-0.01636086404323578,-0.1351165771484375,0.98388671875,-0.0700531005859375
25.44,-0.0044259075075387955,0.055868856608867645,-0.013035108335316181,-0.13177490234375,0.9824371337890625,-0.0721893310546875
25.46,-0.00458622956648469,0.04272349551320076,-0.009471531957387924,-0.1281280517578125,0.982421875,-0.0704345703125
25.48,-0.0033939324785023928,0.019890883937478065,-0.006911435630172491,-0.12994384765625,0.9872283935546875,-0.070770263671875
25.5,0.001014664419926703,-0.00022423815971706063,-0.004713528789579868,-0.1316375732421875,0.9899749755859375,-0.06768798828125
25.52,0.0035052525345236063,-0.004878911189734936,-0.0062640211544930935,-0.128631591796875,0.9800262451171875,-0.0699005126953125
25.54,-0.0006564692012034357,0.00007004113285802305,0.005455485545098782,-0.129669189453125,0.9855194091796875,-0.0684051513671875
25.56,-0.007379619404673576,-0.00680118054151535,0.003710848744958639,-0.12603759765625,0.987548828125,-0.068511962890625
25.58,-0.0054304515942931175,-0.005815810989588499,0.005786782596260309,-0.12835693359375,0.9834136962890625,-0.0671234130859375
25.6,-0.007772169075906277,0.0012860405258834362,0.004568386357277632,-0.130126953125,0.987274169921875,-0.068115234375
25.62,-0.018567292019724846,0.007812915369868279,-0.0009286442655138671,-0.1328887939453125,0.986114501953125,-0.068359375
25.64,-0.01829352043569088,0.01565432734787464,-0.0035025894176214933,-0.131927490234375,0.9830780029296875,-0.0688629150390625
25.66,-0.006196909584105015,0.015912653878331184,-0.004687163513153791,-0.13232421875,0.9844818115234375,-0.0698699951171875
25.68,-0.0012958941515535116,-0.004147873260080814,-0.0022154836915433407,-0.1332550048828125,0.9848480224609375,-0.0724029541015625
25.7,-0.004000067710876465,-0.02744760364294052,-0.002499643014743924,-0.1345062255859375,0.9838409423828125,-0.0693511962890625
25.72,-0.0001752359967213124,-0.014741395600140095,-0.0060080913826823235,-0.1367340087890625,0.986785888671875,-0.0683441162109375
25.74,0.00236328924074769,0.011039335280656815,-0.011168232187628746,-0.1356048583984375,0.983123779296875,-0.071014404296875
25.76,-0.003954527899622917,0.024889903143048286,-0.013102485798299313,-0.136474609375,0.984710693359375,-0.0701446533203125
25.78,-0.011385812424123287,0.018939603120088577,-0.010134126991033554,-0.1319580078125,0.9820556640625,-0.0679931640625
25.8,-0.01248995866626501,0.012192483991384506,-0.005785184912383556,-0.127197265625,0.9859466552734375,-0.0672149658203125
25.82,-0.003552390495315194,0.004486627411097288,-0.006829143967479467,-0.128814697265625,0.985595703125,-0.0689849853515625
25.84,0.007000118959695101,-0.010481136851012707,-0.003921504598110914,-0.1299285888671875,0.98486328125,-0.07012939453125
25.86,0.003242664970457554,-0.03515825420618057,-0.004082892090082169,-0.133636474609375,0.98345947265625,-0.0673828125
25.88,-0.004828843753784895,-0.039983101189136505,-0.004796885885298252,-0.133819580078125,0.9849090576171875,-0.0640106201171875
25.9,-0.0015520902816206217,-0.014934208244085312,-0.009336509741842747,-0.1331024169921875,0.9833526611328125,-0.063690185546875
25.92,-0.004197940696030855,0.016862869262695312,-0.009551427327096462,-0.1339111328125,0.9832916259765625,-0.0656585693359375
25.94,-0.02117133140563965,0.014406636357307434,-0.007051517721265554,-0.1315765380859375,0.987274169921875,-0.0654144287109375
25.96,-0.020251208916306496,-0.012983709573745728,-0.0010301107540726662,-0.1297607421875,0.982391357421875,-0.0629425048828125
25.98,-0.0067657604813575745,-0.030315561220049858,-0.003947070799767971,-0.1332855224609375,0.9864044189453125,-0.0665740966796875
26,-0.0021872541401535273,-0.028069451451301575,-0.010455570183694363,-0.134735107421875,0.98724365234375,-0.0687408447265625
26.02,-0.006651777308434248,-0.0023965786676853895,-0.011992746964097023,-0.1335906982421875,0.986663818359375,-0.0705413818359375
26.04,-0.011175955645740032,0.020475180819630623,-0.011119229719042778,-0.1295013427734375,0.9862518310546875,-0.0700225830078125
26.06,-0.009952499531209469,0.01733957603573799,-0.0023912524338811636,-0.125518798828125,0.9815216064453125,-0.0677032470703125
26.08,0.0029206888284534216,0.00020186760229989886,-0.004277036525309086,-0.1291351318359375,0.987274169921875,-0.0659027099609375
26.1,0.003238936420530081,-0.012104333378374577,-0.004571315832436085,-0.1315460205078125,0.985565185546875,-0.0660552978515625
26.12,-0.0011736550368368626,-0.028982115909457207,-0.005540173966437578,-0.134979248046875,0.984161376953125,-0.063629150390625
26.14,0.006012884899973869,-0.017916150391101837,-0.010911237448453903,-0.1343994140625,0.983154296875,-0.0626678466796875
26.16,0.003120425855740905,0.022468291223049164,-0.013910489156842232,-0.136199951171875,0.9892730712890625,-0.0662841796875
26.18,-0.02184084989130497,0.054121825844049454,-0.010271811857819557,-0.13055419921875,0.9883575439453125,-0.0638275146484375
26.2,-0.027045199647545815,0.06139731407165527,-0.005923136603087187,-0.12506103515625,0.9800567626953125,-0.05926513671875
26.22,-0.014111291617155075,0.04254559427499771,-0.004339620936661959,-0.12677001953125,0.98541259765625,-0.062713623046875
26.24,-0.0027441212441772223,0.003132676472887397,0.002701510675251484,-0.1332855224609375,0.9856414794921875,-0.066253662109375
26.26,-0.0008088020258583128,-0.03617238625884056,0.005496231839060783,-0.1356964111328125,0.9833221435546875,-0.0639801025390625
26.28,-0.002939863596111536,-0.028360800817608833,-0.0014474280178546906,-0.1394500732421875,0.986419677734375,-0.06280517578125
26.3,-0.0054696002043783665,-0.0006388923502527177,-0.007195328362286091,-0.1408843994140625,0.986053466796875,-0.063873291015625
26.32,-0.003893807763233781,0.027702201157808304,-0.012474246323108673,-0.1389617919921875,0.9826202392578125,-0.0635223388671875
26.34,-0.005089833401143551,0.03965926170349121,-0.01366361416876316,-0.1374664306640625,0.982666015625,-0.0625762939453125
26.36,-0.015151522122323513,0.040938910096883774,-0.015982694923877716,-0.138427734375,0.98516845703125,-0.061614990234375
26.38,-0.016829313710331917,0.04006965458393097,-0.018450912088155746,-0.137115478515625,0.98370361328125,-0.059326171875
26.4,-0.008019576780498028,0.0514911524951458,-0.01435124222189188,-0.1360015869140625,0.983856201171875,-0.06072998046875
26.42,-0.007105580065399408,0.03897642716765404,-0.009476859122514725,-0.1345367431640625,0.985443115234375,-0.0650482177734375
26.44,-0.015426360070705414,0.008376972749829292,-0.006721286103129387,-0.1310577392578125,0.984100341796875,-0.0623016357421875
26.46,-0.00743234995752573,0.0015928366919979453,0.0002716424351092428,-0.134918212890625,0.9827423095703125,-0.061065673828125
26.48,-0.004538558889180422,-0.0008396946941502392,-0.0029577065724879503,-0.13336181640625,0.9860992431640625,-0.064117431640625
26.5,-0.010263822972774506,0.009644904173910618,-0.004279699642211199,-0.138519287109375,0.984649658203125,-0.061737060546875
26.52,-0.008392686024308205,0.02003576047718525,-0.0037199032958596945,-0.1384124755859375,0.9828033447265625,-0.061309814453125
26.54,-0.002350772265344858,0.015148593112826347,0.0009563411585986614,-0.1392669677734375,0.9788665771484375,-0.0622711181640625
26.56,-0.00021358551748562604,-0.005273059010505676,-0.0031374699901789427,-0.143341064453125,0.9844970703125,-0.0625
26.58,-0.000603738590143621,-0.006456035189330578,-0.011069695465266705,-0.1473236083984375,0.98565673828125,-0.0613861083984375
26.6,-0.002198173198848963,0.013035108335316181,-0.014006629586219788,-0.14691162109375,0.982757568359375,-0.0604248046875
26.62,-0.0024610271211713552,0.035657063126564026,-0.017135310918092728,-0.1450653076171875,0.9813385009765625,-0.060699462890625
26.64,-0.0037148434203118086,0.038836877793073654,-0.017971809953451157,-0.1394805908203125,0.9819183349609375,-0.0615692138671875
26.66,-0.006177468225359917,0.018735870718955994,-0.008141815662384033,-0.1402130126953125,0.9840240478515625,-0.060760498046875
26.68,-0.011052384972572327,-0.009761550463736057,-0.003537743119522929,-0.1378326416015625,0.984771728515625,-0.059417724609375
26.7,-0.006128998938947916,-0.012866264209151268,-0.006951649207621813,-0.1389312744140625,0.9834442138671875,-0.05908203125
26.72,0.006638195365667343,0.011264905333518982,-0.0067633637227118015,-0.1412353515625,0.9829559326171875,-0.0633544921875
26.74,0.004226969089359045,0.01721387356519699,-0.005646167788654566,-0.1406707763671875,0.9850616455078125,-0.0639190673828125
26.76,-0.012401009909808636,-0.006286125164479017,0.00424348097294569,-0.1376800537109375,0.979339599609375,-0.0606689453125
26.78,-0.0037199032958596945,-0.024351945146918297,0.006872287020087242,-0.1386260986328125,0.98138427734375,-0.05828857421875
26.8,0.009076851420104504,-0.026192720979452133,0.0016567525453865528,-0.141204833984375,0.9858856201171875,-0.0618896484375
26.82,0.006119145080447197,-0.019519105553627014,-0.0041524008847773075,-0.14434814453125,0.9838409423828125,-0.0638885498046875
26.84,0.011750132776796818,-0.005320729687809944,-0.006560430862009525,-0.1448822021484375,0.98199462890625,-0.0630035400390625
26.86,0.00947818998247385,0.002814428647980094,-0.005327120888978243,-0.1409149169921875,0.9847869873046875,-0.06060791015625
26.88,-0.004186489153653383,0.008795355446636677,-0.008952482603490353,-0.1409149169921875,0.9847869873046875,-0.06060791015625
26.9,-0.0016698020044714212,0.010784470476210117,-0.006142847239971161,-0.1420745849609375,0.9833221435546875,-0.05755615234375
26.92,0.004485029727220535,0.0070517840795218945,-0.004496747627854347,-0.137725830078125,0.981842041015625,-0.061126708984375
26.94,0.003114300547167659,-0.0014168017078191042,-0.001984853995963931,-0.1387939453125,0.985595703125,-0.060333251953125
26.96,0.0049252500757575035,0.0018977685831487179,0.0021435783710330725,-0.1382598876953125,0.984222412109375,-0.0599212646484375
26.98,0.007732754573225975,-0.00003488740912871435,0.0012977584265172482,-0.1331939697265625,0.983978271484375,-0.061370849609375
27,-0.001258609932847321,-0.0005209143273532391,0.005595567636191845,-0.1365203857421875,0.985443115234375,-0.062713623046875
27.02,-0.006952448282390833,0.002919090911746025,0.006414223462343216,-0.1367034912109375,0.986602783203125,-0.0598602294921875
27.04,-0.004174504894763231,0.005597964394837618,0.006997189484536648,-0.134735107421875,0.9819793701171875,-0.0600128173828125
27.06,0.0034147051628679037,-0.009418003261089325,0.01110644731670618,-0.1352996826171875,0.9846038818359375,-0.0626373291015625
27.08,0.0029944581910967827,-0.01119246706366539,0.01287265494465828,-0.139434814453125,0.98126220703125,-0.063079833984375
27.1,0.001880191732198,-0.007506119552999735,0.010363158769905567,-0.139434814453125,0.98126220703125,-0.063079833984375
27.12,0.007565774489194155,0.005026184022426605,0.0051774512976408005,-0.1436004638671875,0.9842376708984375,-0.062652587890625
27.14,0.014599182642996311,0.019770774990320206,-0.0004727110790554434,-0.143341064453125,0.9841461181640625,-0.063812255859375
27.16,0.0035265579354017973,0.01642717607319355,-0.0012562130577862263,-0.1440277099609375,0.9814300537109375,-0.064056396484375
27.18,0.000838895735796541,0.011445201002061367,0.0012865731259807944,-0.14044189453125,0.9850006103515625,-0.061920166015625
27.2,0.006261890754103661,0.020297814160585403,0.001457548001781106,-0.1387176513671875,0.982818603515625,-0.0612335205078125
27.22,0.007921306416392326,0.023606792092323303,0.002014148747548461,-0.138763427734375,0.98443603515625,-0.06524658203125
27.24,0.003855191869661212,0.009740511886775494,0.004411792848259211,-0.139617919921875,0.98486328125,-0.062042236328125
27.26,0.008086688816547394,0.003319896524772048,0.0057284594513475895,-0.13995361328125,0.98309326171875,-0.06085205078125
27.28,0.001181111903861165,-0.004137753508985043,0.008184160105884075,-0.1414794921875,0.98388671875,-0.0619354248046875
27.3,-0.00011291803093627095,-0.013596235774457455,0.005525260232388973,-0.137298583984375,0.9830780029296875,-0.0597381591796875
27.32,0.010392719879746437,-0.004698881413787603,0.004416320007294416,-0.140350341796875,0.98504638671875,-0.0615081787109375
27.34,-0.002770486520603299,0.009106945246458054,0.005336442030966282,-0.141632080078125,0.9855499267578125,-0.062957763671875
27.36,-0.013375460170209408,0.030351780354976654,0.0036101811565458775,-0.13763427734375,0.9840240478515625,-0.062835693359375
27.38,-0.014120345935225487,0.03253983333706856,0.0043532028794288635,-0.136444091796875,0.980987548828125,-0.062896728515625
27.4,0.0017273263074457645,0.01489159744232893,0.010007360018789768,-0.1363983154296875,0.984619140625,-0.0658111572265625
27.42,0.008253934793174267,-0.008403338491916656,0.011455587111413479,-0.14239501953125,0.98614501953125,-0.0659332275390625
27.44,0.011294732801616192,-0.028537634760141373,0.009858756326138973,-0.14239501953125,0.98614501953125,-0.0659332275390625
27.46,0.0123043367639184,-0.017676731571555138,0.0059934440068900585,-0.14544677734375,0.9832000732421875,-0.063507080078125
27.48,0.01600133627653122,0.0025156219489872456,0.0013691311469301581,-0.14312744140625,0.9805450439453125,-0.065765380859375
27.5,0.006384662352502346,0.01375149842351675,0.004535629414021969,-0.1403045654296875,0.98370361328125,-0.06475830078125
27.52,-0.001781921018846333,0.02713947556912899,-0.0002822950773406774,-0.1395111083984375,0.9832611083984375,-0.0616607666015625
27.54,-0.0014466290595009923,0.027705663815140724,0.0019648801535367966,-0.1378326416015625,0.9858245849609375,-0.0616912841796875
27.56,0.004986236337572336,0.011726963333785534,0.003948935307562351,-0.1379852294921875,0.98284912109375,-0.0629119873046875
27.58,0.011315238662064075,-0.021027786657214165,0.0032056469935923815,-0.138458251953125,0.983367919921875,-0.0630645751953125
27.6,0.014155499637126923,-0.031259384006261826,0.004043743945658207,-0.140625,0.983245849609375,-0.062835693359375
27.62,0.0033513219095766544,-0.01525724958628416,0.007542338687926531,-0.1383819580078125,0.98419189453125,-0.06396484375
27.64,-0.009467271156609058,-0.002311091171577573,0.006442186422646046,-0.1306915283203125,0.9854583740234375,-0.0627899169921875
27.66,-0.0022980417124927044,0.00983345601707697,0.005546299275010824,-0.132415771484375,0.9829559326171875,-0.0633087158203125
27.68,0.006059490609914064,0.012780243530869484,0.00891173630952835,-0.133819580078125,0.9858245849609375,-0.0677337646484375
27.7,0.0036517265252768993,-0.0022024342324584723,0.0062640211544930935,-0.13433837890625,0.9868927001953125,-0.0678253173828125
27.72,0.003859186777845025,-0.011532552540302277,0.014211959205567837,-0.1346435546875,0.98284912109375,-0.0664215087890625
27.74,0.004063983913511038,-0.01944107562303543,0.010235593654215336,-0.1353912353515625,0.9848785400390625,-0.0677032470703125
27.76,0.0029800771735608578,-0.007749532349407673,0.009951167739927769,-0.1388092041015625,0.9878997802734375,-0.06829833984375
27.78,0.009164203889667988,0.017402691766619682,0.0029316076543182135,-0.1379547119140625,0.9822235107421875,-0.066680908203125
27.8,0.00842783972620964,0.0161771047860384,-0.00034408041392453015,-0.1382598876953125,0.98333740234375,-0.0686492919921875
27.82,0.001404284848831594,0.014446050859987736,0.003774764481931925,-0.1377105712890625,0.98748779296875,-0.0656585693359375
27.84,0.002058623591437936,0.01495125237852335,0.004335892386734486,-0.1341400146484375,0.982452392578125,-0.06597900390625
27.86,0.006848851218819618,0.008331166580319405,0.00481446273624897,-0.137359619140625,0.985137939453125,-0.064422607421875
27.88,0.007081078831106424,0.0006295712664723396,0.004972920753061771,-0.137359619140625,0.9856109619140625,-0.0653839111328125
27.9,0.0027686222456395626,0.006110356654971838,0.004172640852630138,-0.1362457275390625,0.982421875,-0.0651397705078125
27.92,0.00529463030397892,0.010759969241917133,-0.0011619371362030506,-0.1362457275390625,0.982421875,-0.0651397705078125
27.94,-0.003999269101768732,0.017769409343600273,0.001868207473307848,-0.135162353515625,0.9829559326171875,-0.065704345703125
27.96,-0.01709669455885887,0.029441244900226593,0.005283445119857788,-0.1328125,0.9868621826171875,-0.06292724609375
27.98,-0.0059420447796583176,0.031790152192115784,0.010181797668337822,-0.1331634521484375,0.98480224609375,-0.06524658203125
28,0.005620867945253849,0.01625407114624977,0.013368003070354462,-0.1320343017578125,0.98406982421875,-0.0686798095703125
28.02,-0.00005166532355360687,-0.022845128551125526,0.01269928365945816,-0.1371002197265625,0.98590087890625,-0.0692291259765625
28.04,0.01056396123021841,-0.03693244978785515,0.009936253540217876,-0.139312744140625,0.9842987060546875,-0.066253662109375
28.06,0.01606551930308342,-0.015095329843461514,0.003197657410055399,-0.14324951171875,0.9829864501953125,-0.067230224609375
28.08,0.0036008600145578384,0.011610317043960094,-0.00040240364614874125,-0.14276123046875,0.9842529296875,-0.0686187744140625
28.1,-0.008589226752519608,0.03140293061733246,-0.004769721534103155,-0.139404296875,0.9812774658203125,-0.0650482177734375
28.12,-0.0057652113027870655,0.03416223078966141,-0.0031939290929585695,-0.137237548828125,0.9827728271484375,-0.065673828125
28.14,-0.006458698306232691,0.030437801033258438,-0.002748914761468768,-0.13525390625,0.9856719970703125,-0.06787109375
28.16,-0.002490055514499545,0.020685836672782898,0.0032674323301762342,-0.132110595703125,0.9846954345703125,-0.06695556640625
28.18,0.00376011710613966,0.013431386090815067,0.008043278940021992,-0.1292877197265625,0.9819183349609375,-0.0677947998046875
28.2,0.011285144835710526,0.005823001731187105,0.016569655388593674,-0.126739501953125,0.9853057861328125,-0.0710601806640625
28.22,0.003179814200848341,-0.004855475388467312,0.027590615674853325,-0.12542724609375,0.9870147705078125,-0.069122314453125
28.24,0.002243446884676814,-0.026522953063249588,0.033730797469615936,-0.1251678466796875,0.98236083984375,-0.0665435791015625
28.26,0.019877301529049873,-0.04291577637195587,0.03448314219713211,-0.1331939697265625,0.983551025390625,-0.06744384765625
28.28,0.032041557133197784,-0.04746205732226372,0.022642461583018303,-0.1400299072265625,0.9854583740234375,-0.071014404296875
28.3,0.024114390835165977,-0.044436708092689514,0.012123774737119675,-0.144439697265625,0.9836273193359375,-0.0702667236328125
28.32,0.009762083180248737,-0.02171861194074154,0.003061569994315505,-0.14776611328125,0.984130859375,-0.0660552978515625
28.34,0.008261924609541893,0.01028859056532383,-0.008856075815856457,-0.145233154296875,0.9840240478515625,-0.06329345703125
28.36,0.008744489401578903,0.03211931884288788,-0.020169183611869812,-0.144805908203125,0.9809722900390625,-0.062896728515625
28.38,-0.014406902715563774,0.020664798095822334,-0.022310364991426468,-0.1439361572265625,0.98577880859375,-0.06451416015625
28.4,-0.030107835307717323,0.003162237349897623,-0.020502079278230667,-0.1345977783203125,0.9835357666015625,-0.0609893798828125
28.42,-0.020906880497932434,0.0051902346312999725,-0.016513729467988014,-0.1289215087890625,0.9832916259765625,-0.0630645751953125
28.44,-0.015091068111360073,0.025663550943136215,-0.013034841977059841,-0.1250762939453125,0.9861297607421875,-0.0698699951171875
28.46,-0.019542807713150978,0.04079856351017952,-0.003266633255407214,-0.1227569580078125,0.991119384765625,-0.07159423828125
28.48,-0.026016952469944954,0.024087226018309593,0.008980711922049522,-0.1160736083984375,0.98577880859375,-0.06988525390625
28.5,-0.003638410707935691,-0.01654408872127533,0.02214019000530243,-0.11627197265625,0.984283447265625,-0.0702667236328125
28.52,0.012926184572279453,-0.05440172180533409,0.030280407518148422,-0.1230010986328125,0.9849700927734375,-0.07403564453125
28.54,0.025128522887825966,-0.06702643632888794,0.031026626005768776,-0.1300048828125,0.9864959716796875,-0.0721282958984375
28.56,0.02803243324160576,-0.050693538039922714,0.02105548419058323,-0.1341552734375,0.9840545654296875,-0.07147216796875
28.58,0.03357846662402153,-0.02275191806256771,0.010576211847364902,-0.1407318115234375,0.9839935302734375,-0.071258544921875
28.6,0.023616645485162735,-0.003138535423204303,-0.00044048685231246054,-0.1427154541015625,0.9833831787109375,-0.06884765625
28.62,0.012742427177727222,0.017656492069363594,-0.00615243474021554,-0.1428680419921875,0.983306884765625,-0.0635833740234375
28.64,0.011095527559518814,0.028122980147600174,-0.0126982182264328,-0.14093017578125,0.9860687255859375,-0.0607757568359375
28.66,0.0036045885644853115,0.02136600948870182,-0.017665280029177666,-0.13848876953125,0.9834442138671875,-0.060791015625
28.68,-0.008852081373333931,0.005714611150324345,-0.013003682717680931,-0.13616943359375,0.98431396484375,-0.061248779296875
28.7,-0.015797073021531105,-0.0070800138637423515,-0.010075803846120834,-0.1332244873046875,0.9851226806640625,-0.05987548828125
28.72,-0.01980353146791458,-0.0025595640763640404,-0.007367102429270744,-0.1292724609375,0.9884033203125,-0.0608062744140625
28.74,-0.028558406978845596,-0.012425243854522705,-0.0005573995877057314,-0.1271514892578125,0.9848785400390625,-0.0652618408203125
28.76,-0.022952454164624214,-0.04357384145259857,0.006057626102119684,-0.124237060546875,0.9837188720703125,-0.06414794921875
28.78,-0.013943511992692947,-0.06537234783172607,0.0076025258749723434,-0.1303253173828125,0.986328125,-0.0698089599609375
28.8,-0.006030994467437267,-0.06684587895870209,0.010369284078478813,-0.1303253173828125,0.986328125,-0.0698089599609375
28.82,-0.0030927290208637714,-0.06107480451464653,-0.0015622102655470371,-0.1342010498046875,0.983001708984375,-0.0708160400390625
28.84,0.007893609814345837,-0.03230387717485428,-0.003744937013834715,-0.1364898681640625,0.9835052490234375,-0.0700836181640625
28.86,0.005922603886574507,-0.010183661244809628,-0.0013491574209183455,-0.1306304931640625,0.9825592041015625,-0.072357177734375
28.88,-0.002938798163086176,-0.01137089915573597,-0.0006258428329601884,-0.1302947998046875,0.9817352294921875,-0.0701446533203125
28.9,0.0005488775204867125,-0.009780725464224815,0.003192331176251173,-0.1273956298828125,0.98583984375,-0.06890869140625
28.92,0.007931958884000778,-0.00552392890676856,0.0035694348625838757,-0.1249542236328125,0.9830169677734375,-0.0708160400390625
28.94,0.014252971857786179,-0.0214762631803751,0.007962319068610668,-0.1235809326171875,0.98187255859375,-0.0722198486328125
28.96,0.009060340002179146,-0.039312783628702164,0.012870525009930134,-0.1241302490234375,0.9890289306640625,-0.070770263671875
28.98,0.009611881338059902,-0.027297668159008026,0.01678217574954033,-0.123504638671875,0.9882049560546875,-0.068328857421875
29,0.013004748150706291,-0.025118403136730194,0.02082858234643936,-0.1207427978515625,0.9880828857421875,-0.0687103271484375
