timestamp,gyro_x,gyro_y,gyro_z,acc_x,acc_y,acc_z
10,-0.004581702407449484,-0.011081679724156857,-0.005591306835412979,0.0894927978515625,-0.9910125732421875,-0.0653228759765625
10.02,-0.008387093432247639,-0.0035297537688165903,0.006739661563187838,0.0872039794921875,-0.99224853515625,-0.0636444091796875
10.04,0.0018570221727713943,0.016951553523540497,0.007001183927059174,0.0895233154296875,-0.990325927734375,-0.0655364990234375
10.06,0.002040780382230878,0.014600248076021671,0.007669371087104082,0.0864410400390625,-0.9917144775390625,-0.0678558349609375
10.08,0.007450193166732788,0.010764763690531254,0.007798534352332354,0.089202880859375,-0.9918060302734375,-0.0623016357421875
10.1,0.017707889899611473,0.012695555575191975,0.005905826110392809,0.0856475830078125,-0.990325927734375,-0.068450927734375
10.12,0.01709376648068428,0.01667298562824726,0.00455826660618186,0.0883331298828125,-0.990264892578125,-0.0715789794921875
10.14,0.013520069420337677,0.01810496859252453,0.004171841777861118,0.0896148681640625,-0.9920806884765625,-0.0699462890625
10.16,0.004710865672677755,0.017538780346512794,0.0021827267482876778,0.0877838134765625,-0.9904327392578125,-0.066802978515625
10.18,0.0007989483419805765,0.004626177251338959,0.0009704558760859072,0.08642578125,-0.991790771484375,-0.0702056884765625
10.2,-0.00646801944822073,-0.027893949300050735,-0.004027498420327902,0.0874786376953125,-0.992156982421875,-0.0697784423828125
10.22,-0.004180363845080137,-0.048893507570028305,-0.0008620652370154858,0.085052490234375,-0.9927825927734375,-0.0652618408203125
10.24,-0.00301682879216969,-0.04890549182891846,-0.006647782865911722,0.09271240234375,-0.9903717041015625,-0.0667572021484375
10.26,-0.004674113821238279,-0.0510309599339962,-0.010036388412117958,0.0914459228515625,-0.993194580078125,-0.0642852783203125
10.28,0.006530337035655975,-0.020564664155244827,-0.015178952366113663,0.097259521484375,-0.98895263671875,-0.061676025390625
10.3,0.011529623530805111,0.0036274916492402554,-0.014316354878246784,0.095947265625,-0.98724365234375,-0.0654449462890625
10.32,0.013821805827319622,0.027219902724027634,-0.009409480728209019,0.0965576171875,-0.9895477294921875,-0.0617523193359375
10.34,0.011550928466022015,0.03273637592792511,-0.00875008199363947,0.0925140380859375,-0.9911956787109375,-0.0647735595703125
10.36,0.00817830115556717,0.020592626184225082,0.005651227664202452,0.0873260498046875,-0.99017333984375,-0.064788818359375
10.38,0.013224459253251553,0.021636586636304855,0.011636150069534779,0.08935546875,-0.9921112060546875,-0.06622314453125
10.4,0.00580915343016386,0.0235854871571064,0.011858790181577206,0.088592529296875,-0.9913787841796875,-0.0702362060546875
10.42,-0.0005608617211692035,0.028866801410913467,0.018924955278635025,0.0894622802734375,-0.9901580810546875,-0.064971923828125
10.44,-0.003227484878152609,0.04707217216491699,0.011234545148909092,0.0948486328125,-0.989288330078125,-0.0665283203125
10.46,-0.00945049338042736,0.043785031884908676,0.014792528003454208,0.094696044921875,-0.9907989501953125,-0.0680084228515625
10.48,-0.016696687787771225,0.03219122439622879,0.017916949465870857,0.094329833984375,-0.9881591796875,-0.0637969970703125
10.5,-0.023299729451537132,0.024285897612571716,0.018134528771042824,0.0963897705078125,-0.9888916015625,-0.064697265625
10.52,-0.024661138653755188,0.016625581309199333,0.0059572248719632626,0.099212646484375,-0.9916839599609375,-0.061248779296875
10.54,-0.017237309366464615,0.009277387522161007,-0.0054328483529388905,0.099365234375,-0.9927215576171875,-0.06146240234375
10.56,-0.006875216495245695,-0.00040293627534992993,-0.011804727837443352,0.0960693359375,-0.9901123046875,-0.0627899169921875
10.58,0.010457701049745083,-0.0012538161827251315,-0.01768578588962555,0.09375,-0.9915771484375,-0.0616455078125
10.6,0.005880259443074465,-0.005367601290345192,-0.012367453426122665,0.088623046875,-0.992584228515625,-0.062896728515625
10.62,0.014524880796670914,0.019470637664198875,-0.007862716913223267,0.0868682861328125,-0.99224853515625,-0.060546875
10.64,0.015661783516407013,0.03211745619773865,0.00893676932901144,0.086456298828125,-0.9907684326171875,-0.0666351318359375
10.66,0.0004655205411836505,0.03212864324450493,0.015155516564846039,0.08819580078125,-0.99078369140625,-0.0636138916015625
10.68,0.004911668132990599,0.05541984736919403,0.020428841933608055,0.0869903564453125,-0.9901885986328125,-0.0613250732421875
10.7,0.010331200435757637,0.05915093794465065,0.01709855906665325,0.0908203125,-0.9900360107421875,-0.07080078125
10.72,0.003692472819238901,0.037630997598171234,0.006420082412660122,0.0904541015625,-0.990631103515625,-0.0688323974609375
10.74,-0.000821318884845823,0.011097125709056854,-0.003949201665818691,0.0885772705078125,-0.9922943115234375,-0.06597900390625
10.76,0.005387841258198023,-0.0136612169444561,-0.0030743530951440334,0.08575439453125,-0.99090576171875,-0.0659637451171875
10.78,0.0048948898911476135,-0.03677505999803543,-0.003192597534507513,0.0861968994140625,-0.9899444580078125,-0.0721588134765625
10.8,-0.015182415023446083,-0.05844999477267265,0.0031787490006536245,0.0830535888671875,-0.992034912109375,-0.0675048828125
10.82,-0.01980619505047798,-0.039263248443603516,0.012225240468978882,0.087890625,-0.9913482666015625,-0.0596923828125
10.84,-0.019123626872897148,-0.006186523009091616,0.010506968945264816,0.094482421875,-0.9867095947265625,-0.065338134765625
10.86,-0.009867277927696705,0.033609624952077866,0.002133192028850317,0.095855712890625,-0.99200439453125,-0.0621795654296875
10.88,-0.005408081226050854,0.03158269450068474,-0.011679825372993946,0.0959014892578125,-0.988311767578125,-0.0648651123046875
10.9,0.0060416474007070065,0.002745985286310315,-0.013775200583040714,0.08990478515625,-0.9930267333984375,-0.062103271484375
10.92,0.01666259951889515,-0.028361067175865173,-0.004821919370442629,0.080108642578125,-0.9925994873046875,-0.066253662109375
10.94,0.01865650899708271,-0.04473205283284187,0.012411129660904408,0.0782928466796875,-0.990875244140625,-0.0695953369140625
10.96,0.010926949791610241,-0.022589731961488724,0.023192670196294785,0.080963134765625,-0.99200439453125,-0.0679779052734375
10.98,-0.008200138807296753,0.014089720323681831,0.026430541649460793,0.082763671875,-0.99517822265625,-0.067291259765625
11,-0.0262403916567564,0.0336836613714695,0.019579293206334114,0.09124755859375,-0.99017333984375,-0.0634002685546875
11.02,-0.018489262089133263,0.03755057230591774,0.014785337261855602,0.0920562744140625,-0.9891510009765625,-0.0625152587890625
11.04,-0.004231496714055538,0.007065632846206427,0.0017869811272248626,0.0973968505859375,-0.988983154296875,-0.0698089599609375
11.06,0.007907990366220474,-0.02937093749642372,-0.011117632500827312,0.09564208984375,-0.99188232421875,-0.0662078857421875
11.08,0.022049374878406525,-0.042869169265031815,-0.01938275247812271,0.092254638671875,-0.991058349609375,-0.065826416015625
11.1,0.016450878232717514,-0.03831969201564789,-0.01649056002497673,0.088958740234375,-0.9910125732421875,-0.069427490234375
11.12,0.0031017838045954704,-0.02694612927734852,-0.00782436691224575,0.0869903564453125,-0.9921875,-0.0656585693359375
11.14,-0.002159024588763714,-0.007284278050065041,0.005161738954484463,0.0832366943359375,-0.98980712890625,-0.0665283203125
11.16,-0.004026965703815222,0.019711652770638466,0.01738271862268448,0.0831756591796875,-0.9923248291015625,-0.0676422119140625
11.18,-0.003364371368661523,0.029938191175460815,0.016203204169869423,0.085296630859375,-0.9917755126953125,-0.0703887939453125
11.2,-0.011742143891751766,0.012290487997233868,0.017005348578095436,0.085540771484375,-0.99267578125,-0.0675811767578125
11.22,0.0014594122767448425,0.010513893328607082,0.009437443688511848,0.090728759765625,-0.9920501708984375,-0.065704345703125
11.24,0.008329036645591259,-0.005388906225562096,0.00039734362508170307,0.0904693603515625,-0.990814208984375,-0.0734100341796875
11.26,0.009104282595217228,-0.017556356266140938,-0.004536961205303669,0.0887298583984375,-0.9861907958984375,-0.067169189453125
11.28,0.003925499506294727,-0.01654249057173729,0.004518585279583931,0.0868072509765625,-0.988861083984375,-0.0667266845703125
11.3,-0.0009259810904040933,-0.00039228363311849535,0.006714894436299801,0.0888214111328125,-0.993408203125,-0.06451416015625
11.32,-0.0024892566725611687,0.01092455256730318,0.0033963292371481657,0.0872344970703125,-0.9888763427734375,-0.069580078125
11.34,-0.004210724029690027,-0.0027260116767138243,0.0043870252557098866,0.0872039794921875,-0.9895172119140625,-0.065673828125
11.36,-0.007903729565441608,-0.012005530297756195,-0.0011110707418993115,0.086181640625,-0.9954681396484375,-0.0655975341796875
11.38,-0.0024884575977921486,-0.015687350183725357,0.00318940170109272,0.0856475830078125,-0.9884796142578125,-0.0652923583984375
11.4,0.012487296015024185,-0.0026700852904468775,0.00313560594804585,0.086395263671875,-0.990997314453125,-0.0669403076171875
11.42,0.010994594544172287,0.011174357496201992,-0.0002969424531329423,0.0898590087890625,-0.992095947265625,-0.0679473876953125
11.44,-0.005107143893837929,0.008670985698699951,0.003375822911038995,0.0853729248046875,-0.9894866943359375,-0.0643768310546875
11.46,0.004250138532370329,0.012978915125131607,0.004970257636159658,0.08599853515625,-0.9923553466796875,-0.061737060546875
11.48,0.003338538808748126,-0.0008431567694060504,-0.0007715177489444613,0.0849151611328125,-0.9936065673828125,-0.069671630859375
11.5,0.0048948898911476135,-0.01116556953638792,0.005820604972541332,0.082794189453125,-0.9918670654296875,-0.0643768310546875
11.52,0.013247095979750156,-0.00010146643762709573,0.007808388210833073,0.0849151611328125,-0.9921112060546875,-0.066131591796875
11.54,0.003228283952921629,0.0054698665626347065,-0.0008093346259556711,0.090576171875,-0.9902496337890625,-0.0656890869140625
11.56,-0.00324825756251812,0.011842278763651848,-0.002231728984043002,0.090728759765625,-0.99029541015625,-0.062713623046875
11.58,0.010847055353224277,0.03104766458272934,-0.009335445240139961,0.0916290283203125,-0.99176025390625,-0.0630035400390625
11.6,-0.0012934972764924169,0.009704825468361378,-0.008401740342378616,0.0901336669921875,-0.9916839599609375,-0.0688934326171875
11.62,0.006308229640126228,0.00011105381418019533,-0.010536796413362026,0.087799072265625,-0.9922637939453125,-0.0595855712890625
11.64,0.019118035212159157,-0.0005161206354387105,-0.0105929896235466,0.0848236083984375,-0.9920654296875,-0.06866455078125
11.66,0.014357101172208786,0.002657035831362009,-0.007532484829425812,0.0830230712890625,-0.9899139404296875,-0.0679168701171875
11.68,0.0070158313028514385,0.007454986684024334,-0.0008335694437846541,0.08172607421875,-0.9918975830078125,-0.0660858154296875
11.7,0.003939081449061632,0.01907169446349144,0.005527656991034746,0.0831298828125,-0.992919921875,-0.0638427734375
11.72,0.0012261193478479981,0.02569124847650528,0.007286408916115761,0.0836029052734375,-0.990325927734375,-0.067108154296875
11.74,-0.0028735508676618338,0.020864002406597137,0.005035505164414644,0.085052490234375,-0.994354248046875,-0.0646820068359375
11.76,0.00336170825175941,0.019846942275762558,0.00009880327706923708,0.0883026123046875,-0.9918975830078125,-0.063232421875
11.78,0.003659449517726898,0.003935619257390499,-0.012444685213267803,0.0917510986328125,-0.9914703369140625,-0.065216064453125
11.8,0.0065590995363891125,-0.006935137789696455,-0.025019066408276558,0.090667724609375,-0.9915008544921875,-0.0598907470703125
11.82,0.02696077711880207,-0.005834453273564577,-0.016591759398579597,0.0895843505859375,-0.9889678955078125,-0.0661468505859375
11.84,0.02532240003347397,-0.01338877622038126,-0.015400261618196964,0.0901336669921875,-0.9915924072265625,-0.0694580078125
11.86,0.01471582893282175,-0.005796370096504688,-0.013768009841442108,0.085662841796875,-0.9909210205078125,-0.0615692138671875
11.88,0.004592621233314276,0.002718821167945862,-0.008612928912043571,0.0833892822265625,-0.9897613525390625,-0.0638275146484375
11.9,-0.00011211907985853031,0.014631407335400581,-0.002124137245118618,0.0847930908203125,-0.9952850341796875,-0.0609130859375
11.92,0.003138801548629999,0.032176047563552856,0.003478088416159153,0.087799072265625,-0.9918365478515625,-0.065643310546875
11.94,-0.007252053823322058,0.019355854019522667,-0.00021598236344289035,0.0897369384765625,-0.987213134765625,-0.0637054443359375
11.96,-0.013714213855564594,0.01188275869935751,-0.0011576761025935411,0.0937652587890625,-0.99261474609375,-0.0573577880859375
11.98,0.004269846249371767,0.023547403514385223,-0.011830826289951801,0.0990447998046875,-0.9917755126953125,-0.0601348876953125
12,0.0015723302494734526,0.010643322952091694,-0.019280754029750824,0.096221923828125,-0.9866790771484375,-0.06353759765625
12.02,0.006416620220988989,0.005061337724328041,-0.025649970397353172,0.099884033203125,-0.9898681640625,-0.0562591552734375
12.04,0.015152321197092533,0.003915379289537668,-0.026261964812874794,0.09442138671875,-0.9937896728515625,-0.059814453125
12.06,0.013908624649047852,-0.0005898901727050543,-0.020532971248030663,0.0930328369140625,-0.9911346435546875,-0.061553955078125
12.08,0.01581571437418461,0.012496083974838257,-0.012954680249094963,0.0897674560546875,-0.9897918701171875,-0.0583648681640625
12.1,0.004192614462226629,0.03214089199900627,0.002492984989657998,0.0898590087890625,-0.9937286376953125,-0.0628509521484375
12.12,-0.007150853984057903,0.04995477572083473,0.0031433289404958487,0.0923309326171875,-0.9913482666015625,-0.0564117431640625
12.14,-0.009600961580872536,0.06119198352098465,-0.00000852211542223813,0.0928192138671875,-0.9906463623046875,-0.058837890625
12.16,-0.0005470133037306368,0.05336788296699524,-0.004246676806360483,0.0957183837890625,-0.9913482666015625,-0.0608978271484375
12.18,-0.0025981799699366093,0.024961275979876518,-0.012558402493596077,0.0927276611328125,-0.989654541015625,-0.0619659423828125
12.2,0.00018855179951060563,0.002650910522788763,-0.015103851445019245,0.094879150390625,-0.9890899658203125,-0.0561065673828125
12.22,0.0208261851221323,0.0027499801944941282,-0.008948487229645252,0.0942535400390625,-0.9912567138671875,-0.0617218017578125
12.24,0.014038054272532463,0.006044310517609119,-0.0060174125246703625,0.095733642578125,-0.991424560546875,-0.0637664794921875
12.26,-0.004523379262536764,0.020744426175951958,-0.008594819344580173,0.09442138671875,-0.9906005859375,-0.0555267333984375
12.28,-0.00777722941711545,0.03503388538956642,-0.003979827743023634,0.090972900390625,-0.9908294677734375,-0.0556182861328125
12.3,-0.0036844832357019186,0.03888188675045967,-0.001841842196881771,0.0909881591796875,-0.990478515625,-0.058441162109375
12.32,-0.004900216590613127,0.017045030370354652,-0.005198223982006311,0.0899505615234375,-0.991180419921875,-0.0605316162109375
12.34,-0.0025888588279485703,0.0033425334841012955,0.0020748688839375973,0.085662841796875,-0.993316650390625,-0.056121826171875
12.36,0.0002956108655780554,0.003228283952921629,0.00615270109847188,0.0908966064453125,-0.99066162109375,-0.0594482421875
12.38,0.004593420308083296,0.014242852106690407,-0.003881823504343629,0.091796875,-0.9905242919921875,-0.06048583984375
12.4,-0.013304353691637516,-0.0011163970921188593,-0.010053698904812336,0.09259033203125,-0.989715576171875,-0.0582733154296875
12.42,-0.008463259786367416,-0.004384362138807774,-0.002588326344266534,0.0885009765625,-0.991973876953125,-0.0530242919921875
12.44,0.0006711165769957006,-0.008468053303658962,0.0054336474277079105,0.0894012451171875,-0.9917144775390625,-0.0622406005859375
12.46,0.004382763989269733,-0.008162322454154491,0.008394017815589905,0.0869903564453125,-0.9902801513671875,-0.0599365234375
12.48,-0.0016434367280453444,0.0038863508962094784,0.00974210910499096,0.090057373046875,-0.990631103515625,-0.0577239990234375
12.5,-0.0004647216119337827,0.015730492770671844,0.0034320156555622816,0.0919342041015625,-0.9925689697265625,-0.060943603515625
12.52,-0.0004913532175123692,0.010703244246542454,0.002909237053245306,0.089080810546875,-0.9880523681640625,-0.059326171875
12.54,0.0000958738019107841,-0.00427117757499218,0.007510113995522261,0.0880889892578125,-0.9922943115234375,-0.060791015625
12.56,0.006969226058572531,-0.008174573071300983,0.01248276885598898,0.0881500244140625,-0.9889373779296875,-0.0610809326171875
12.58,-0.00777722941711545,-0.027004985138773918,0.011576495133340359,0.0883026123046875,-0.989837646484375,-0.0631256103515625
12.6,-0.007376689929515123,-0.022042717784643173,0.016340358182787895,0.085693359375,-0.9933624267578125,-0.0579376220703125
12.62,-0.00881106872111559,-0.027759192511439323,0.018267154693603516,0.0898284912109375,-0.9917449951171875,-0.0659027099609375
12.64,-0.011594338342547417,-0.02323075383901596,0.019785955548286438,0.091033935546875,-0.9909820556640625,-0.0610504150390625
12.66,-0.01073759887367487,-0.01022600568830967,0.017851701006293297,0.09393310546875,-0.99285888671875,-0.0621337890625
12.68,-0.013010607101023197,-0.00015686018741689622,0.011601794511079788,0.092926025390625,-0.9892120361328125,-0.0603179931640625
12.7,-0.011500328779220581,-0.0073567163199186325,0.011304586194455624,0.09307861328125,-0.9890289306640625,-0.06195068359375
12.72,-0.00815246906131506,-0.018639463931322098,0.009836651384830475,0.0916748046875,-0.99090576171875,-0.063232421875
12.74,-0.008404403924942017,-0.03963476046919823,0.015243135392665863,0.0887908935546875,-0.993133544921875,-0.0650177001953125
12.76,-0.009793775156140327,-0.04115995392203331,0.015960058197379112,0.0877532958984375,-0.993194580078125,-0.06304931640625
12.78,-0.01889006793498993,-0.036739639937877655,0.01671825908124447,0.0904693603515625,-0.9926910400390625,-0.0625457763671875
12.8,-0.020323114469647408,-0.01637497916817665,0.013911820948123932,0.0944976806640625,-0.9913482666015625,-0.05767822265625
12.82,-0.007941014133393764,0.0031553131993860006,0.007865113206207752,0.097991943359375,-0.98956298828125,-0.0614166259765625
12.84,-0.004741758108139038,-0.002641589380800724,0.00216488353908062,0.09649658203125,-0.989532470703125,-0.064910888671875
12.86,0.0039049931801855564,-0.004076766781508923,-0.003051982494071126,0.094024658203125,-0.9933013916015625,-0.0607452392578125
12.88,0.011009507812559605,-0.008788431994616985,0.0015994944842532277,0.0907745361328125,-0.9898223876953125,-0.06597900390625
12.9,0.006340720225125551,-0.0015105449128895998,0.009445966221392155,0.0852508544921875,-0.9889373779296875,-0.065032958984375
12.92,0.0030890004709362984,0.014764298684895039,0.018613897264003754,0.08563232421875,-0.9926300048828125,-0.066986083984375
12.94,-0.010953581891953945,0.02496633678674698,0.02225870080292225,0.083831787109375,-0.9921417236328125,-0.0671844482421875
12.96,-0.022103171795606613,0.029256422072649002,0.024602016434073448,0.0833282470703125,-0.9923553466796875,-0.065582275390625
12.98,-0.02605849876999855,0.014464959502220154,0.026565831154584885,0.0853118896484375,-0.99127197265625,-0.0678863525390625
13,-0.020200876519083977,-0.0034786208998411894,0.023624636232852936,0.090087890625,-0.9888458251953125,-0.065277099609375
13.02,-0.016812268644571304,-0.009486179798841476,0.013527260161936283,0.094696044921875,-0.992828369140625,-0.0671234130859375
13.04,-0.02045627310872078,-0.024999892339110374,-0.003281546989455819,0.09576416015625,-0.9911041259765625,-0.0645599365234375
13.06,-0.008771919645369053,-0.028242023661732674,-0.01575845666229725,0.094329833984375,-0.9906158447265625,-0.0592041015625
13.08,0.014677213504910469,-0.011892612092196941,-0.01871855929493904,0.0939788818359375,-0.991119384765625,-0.066497802734375
13.1,0.01636192947626114,-0.005285575985908508,-0.018622420728206635,0.0890655517578125,-0.9915924072265625,-0.069305419921875
13.12,0.0035380094777792692,0.008991098031401634,-0.003940945956856012,0.0835418701171875,-0.9873046875,-0.06097412109375
13.14,0.005149754695594311,0.03899187222123146,0.011381817981600761,0.0809326171875,-0.9928131103515625,-0.0657196044921875
13.16,-0.008614527061581612,0.03964275121688843,0.016149941831827164,0.080413818359375,-0.99444580078125,-0.069305419921875
13.18,-0.01261219847947359,0.029825007542967796,0.023601999506354332,0.07818603515625,-0.9896392822265625,-0.062774658203125
13.2,-0.007977232336997986,0.026132002472877502,0.026926422491669655,0.0816497802734375,-0.991790771484375,-0.0710601806640625
13.22,-0.008592955768108368,0.01841629110276699,0.014721954241394997,0.087432861328125,-0.993438720703125,-0.0691375732421875
13.24,0.002552373567596078,0.029471606016159058,0.004889563657343388,0.0884246826171875,-0.9893798828125,-0.0682525634765625
13.26,-0.004568386357277632,0.015576562844216824,-0.004246676806360483,0.0907745361328125,-0.9913787841796875,-0.0714111328125
13.28,-0.011884355917572975,0.005138835404068232,-0.002683933824300766,0.0858306884765625,-0.990936279296875,-0.0631256103515625
13.3,-0.0041582598350942135,0.0034285534638911486,0.0051833102479577065,0.081817626953125,-0.9899444580078125,-0.0676116943359375
13.32,-0.012439358979463577,-0.01010696217417717,0.011359979398548603,0.0813140869140625,-0.992340087890625,-0.07135009765625
13.34,-0.011591941118240356,-0.0010940266074612737,0.00600436283275485,0.08172607421875,-0.9933013916015625,-0.0660400390625
13.36,-0.008359928615391254,0.012178901582956314,0.0021944446489214897,0.0849151611328125,-0.9907379150390625,-0.0673370361328125
13.38,-0.010369284078478813,0.0036842171102762222,-0.00023196132679004222,0.0841827392578125,-0.9920806884765625,-0.0667572021484375
13.4,0.004789961501955986,0.002133192028850317,0.000639691308606416,0.08502197265625,-0.992523193359375,-0.0638580322265625
13.42,0.01143667846918106,-0.012329637072980404,-0.004450940992683172,0.0872650146484375,-0.989990234375,-0.070953369140625
13.44,0.013406086713075638,-0.013516874052584171,-0.0033396040089428425,0.0856781005859375,-0.9895477294921875,-0.0650634765625
13.46,0.015600265003740788,0.0014921691035851836,0.0002801645314320922,0.086212158203125,-0.992462158203125,-0.06646728515625
13.48,0.008158859796822071,0.011264106258749962,-0.005239502992480993,0.0867462158203125,-0.990203857421875,-0.0682373046875
13.5,-0.0037380128633230925,0.006952448282390833,-0.004382763989269733,0.083770751953125,-0.99090576171875,-0.0650177001953125
13.52,0.005591306835412979,0.01401808112859726,0.0025955168530344963,0.0859832763671875,-0.9933624267578125,-0.0663909912109375
13.54,0.005455751903355122,0.00039787625428289175,0.0015374429058283567,0.0839385986328125,-0.99041748046875,-0.0723419189453125
13.56,0.0026165556628257036,-0.014642059803009033,0.001097755040973425,0.0853729248046875,-0.989654541015625,-0.0635528564453125
13.58,0.0017592841759324074,-0.0196077898144722,-0.0026932547334581614,0.0870361328125,-0.994293212890625,-0.0666656494140625
13.6,0.000027164242055732757,-0.027181819081306458,-0.013696637004613876,0.0904693603515625,-0.992034912109375,-0.0654754638671875
13.62,-0.0011201255256310105,-0.036615535616874695,-0.019302058964967728,0.0903778076171875,-0.9905548095703125,-0.06195068359375
13.64,0.00911280419677496,-0.0305163636803627,-0.026583939790725708,0.093017578125,-0.994171142578125,-0.063079833984375
13.66,0.01973801851272583,-0.016835438087582588,-0.0310407392680645,0.092864990234375,-0.9895782470703125,-0.0657501220703125
13.68,0.02552027441561222,0.0025004418566823006,-0.028914738446474075,0.089080810546875,-0.9879150390625,-0.0632476806640625
13.7,0.025897642597556114,0.0302007794380188,-0.013614078983664513,0.08917236328125,-0.991546630859375,-0.064056396484375
13.72,0.018578210845589638,0.059789031744003296,0.0001978728687390685,0.085113525390625,-0.9896392822265625,-0.0679473876953125
13.74,0.006951382849365473,0.05813787132501602,0.0054363105446100235,0.081329345703125,-0.9906005859375,-0.065216064453125
13.76,-0.002400573343038559,0.040528517216444016,0.013070528395473957,0.07958984375,-0.9950714111328125,-0.0654754638671875
13.78,-0.0034762241411954165,0.02105974592268467,0.008198807947337627,0.0819854736328125,-0.9921875,-0.06640625
13.8,0.006539658177644014,0.008478173054754734,0.004780107643455267,0.083221435546875,-0.9912872314453125,-0.06939697265625
13.82,0.0019859191961586475,-0.00942173134535551,-0.004798749927431345,0.09185791015625,-0.9907073974609375,-0.068939208984375
13.84,-0.011577560566365719,-0.016291355714201927,-0.012977584265172482,0.09326171875,-0.992156982421875,-0.061126708984375
13.86,-0.005147357936948538,-0.0057439059019088745,-0.02130901627242565,0.0951385498046875,-0.991729736328125,-0.0603485107421875
13.88,0.0028301412239670753,-0.009850766509771347,-0.027334418147802353,0.094512939453125,-0.9877471923828125,-0.0615386962890625
13.9,0.007965780794620514,-0.018218684941530228,-0.033432260155677795,0.0937652587890625,-0.9915313720703125,-0.0586395263671875
13.92,0.01164493802934885,-0.017068998888134956,-0.03495132550597191,0.0892791748046875,-0.9951629638671875,-0.05780029296875
13.94,0.019240273162722588,-0.003984621725976467,-0.029768282547593117,0.0884246826171875,-0.99053955078125,-0.0597991943359375
13.96,0.02016385830938816,0.0024668860714882612,-0.02376631647348404,0.0886993408203125,-0.9930267333984375,-0.06109619140625
13.98,0.021408086642622948,0.013766412623226643,-0.01798699051141739,0.08856201171875,-0.991058349609375,-0.059722900390625
14,0.026320287957787514,0.03225966915488243,-0.005112203769385815,0.085906982421875,-0.9904327392578125,-0.063446044921875
14.02,0.02460814081132412,0.0420643612742424,0.000050600061513250694,0.088653564453125,-0.993377685546875,-0.063385009765625
14.04,0.008762865327298641,0.03718705102801323,-0.00680197961628437,0.0890655517578125,-0.99163818359375,-0.063995361328125
14.06,0.0009062737226486206,0.017646105960011482,-0.0021462414879351854,0.0868988037109375,-0.99267578125,-0.059967041015625
14.08,0.010063819587230682,0.018449580296874046,-0.0016050871927291155,0.091552734375,-0.988861083984375,-0.065216064453125
14.1,0.005086104851216078,0.001353418454527855,-0.007921839132905006,0.091156005859375,-0.988555908203125,-0.067230224609375
14.12,0.00024394555657636374,-0.008098673075437546,-0.01085877325385809,0.0932159423828125,-0.9913787841796875,-0.0614166259765625
14.14,-0.0008796420879662037,0.0005217132274992764,-0.01146597322076559,0.09112548828125,-0.9906158447265625,-0.0632171630859375
14.16,-0.005140699911862612,-0.003035471076145768,-0.011520568281412125,0.0908660888671875,-0.98980712890625,-0.063873291015625
14.18,-0.004080495331436396,-0.0054389736615121365,-0.00830639898777008,0.0905609130859375,-0.9931182861328125,-0.0597686767578125
14.2,-0.000036751622246811166,-0.0034442662727087736,-0.01008059736341238,0.0913238525390625,-0.9925079345703125,-0.061676025390625
14.22,-0.004551342222839594,-0.013174657709896564,-0.005655222572386265,0.0878753662109375,-0.9928436279296875,-0.0627593994140625
14.24,-0.0020506340079009533,-0.011452391743659973,-0.005499161314219236,0.0907440185546875,-0.9914093017578125,-0.056793212890625
14.26,0.015249260701239109,0.0026351979468017817,-0.00047643951256759465,0.091888427734375,-0.988311767578125,-0.06298828125
14.28,0.003853061469271779,0.006248041987419128,0.004829376470297575,0.0919189453125,-0.9915313720703125,-0.06683349609375
14.3,-0.0019142802339047194,0.016380570828914642,0.0032783513888716698,0.0945587158203125,-0.9906158447265625,-0.057281494140625
14.32,-0.0008364989189431071,0.023437416180968285,-0.0007712514488957822,0.0943756103515625,-0.990692138671875,-0.06231689453125
14.34,0.00011078749957960099,-0.0026581010315567255,-0.004707669839262962,0.09124755859375,-0.9947357177734375,-0.0621337890625
14.36,-0.00035420042695477605,-0.022974025458097458,-0.0017486315919086337,0.0932769775390625,-0.99017333984375,-0.0608367919921875
14.38,0.008927981369197369,-0.02105415239930153,-0.00013928332191426307,0.0954742431640625,-0.989715576171875,-0.061676025390625
14.4,0.0032623722217977047,-0.012688364833593369,-0.004834169987589121,0.0958099365234375,-0.9922027587890625,-0.065704345703125
14.42,-0.010839331895112991,-0.009324525482952595,-0.009324525482952595,0.09417724609375,-0.9892730712890625,-0.057098388671875
14.44,0.004286624025553465,0.011656655929982662,-0.00950934924185276,0.0968780517578125,-0.988739013671875,-0.0583038330078125
14.46,0.004777977243065834,0.0014207963831722736,-0.009603092446923256,0.096527099609375,-0.9922637939453125,-0.066558837890625
14.48,-0.0035060516092926264,-0.01683730259537697,-0.007873103022575378,0.0927734375,-0.9907989501953125,-0.0562744140625
14.5,0.004287955816835165,-0.010263290256261826,-0.007115433923900127,0.0944366455078125,-0.9922637939453125,-0.0590667724609375
14.52,0.00823982059955597,-0.0065069012343883514,-0.006535663735121489,0.0927276611328125,-0.989654541015625,-0.063568115234375
14.54,0.005771602503955364,-0.009070727042853832,-0.0021084246691316366,0.09466552734375,-0.9915008544921875,-0.059844970703125
14.56,0.0030780816450715065,-0.0011140003334730864,-0.0043657198548316956,0.0954742431640625,-0.9908447265625,-0.0587921142578125
14.58,0.0005379585199989378,0.011407916434109211,0.001433845958672464,0.093658447265625,-0.988983154296875,-0.062957763671875
14.6,-0.002292981604114175,0.016653278842568398,0.00595429539680481,0.09674072265625,-0.9901275634765625,-0.0609130859375
14.62,0.001208009896799922,0.03214754909276962,-0.0002996056282427162,0.0957183837890625,-0.9924163818359375,-0.0615692138671875
14.64,-0.0019829897210001945,0.024895230308175087,-0.0057047572918236256,0.0941619873046875,-0.9909515380859375,-0.0615692138671875
14.66,0.0012937636347487569,0.012462262064218521,-0.007421963382512331,0.096588134765625,-0.99163818359375,-0.0596771240234375
14.68,0.0007664577569812536,0.004992361646145582,-0.003916977439075708,0.0938568115234375,-0.989288330078125,-0.0633087158203125
14.7,-0.001002680161036551,-0.0017201356822624803,-0.0015933692920953035,0.0926513671875,-0.9884490966796875,-0.0616455078125
14.72,-0.00012916330888401717,0.006955910474061966,0.00809148233383894,0.0915374755859375,-0.9901580810546875,-0.0589752197265625
14.74,-0.008500277064740658,0.01145851705223322,0.011699799448251724,0.0966339111328125,-0.9924163818359375,-0.0621490478515625
14.76,-0.008786301128566265,0.029748041182756424,-0.0007837683078832924,0.0955810546875,-0.990875244140625,-0.057281494140625
14.78,-0.00370099488645792,0.03586452454328537,-0.0000804274677648209,0.097808837890625,-0.990997314453125,-0.06048583984375
14.8,-0.003151052165776491,0.01961711049079895,-0.008531969040632248,0.0979461669921875,-0.9908447265625,-0.05999755859375
14.82,0.0054544201120734215,0.010974886827170849,-0.012299276888370514,0.095306396484375,-0.99127197265625,-0.0588531494140625
14.84,0.01064864918589592,0.002510828198865056,-0.0032948628067970276,0.0959014892578125,-0.990386962890625,-0.0611114501953125
14.86,0.010324276052415371,0.01757366769015789,0.000657534459605813,0.098663330078125,-0.9907989501953125,-0.060791015625
14.88,-0.010905112139880657,0.022284798324108124,0.0002311623829882592,0.0961151123046875,-0.9901275634765625,-0.0612945556640625
14.9,-0.020618725568056107,0.021894114091992378,-0.0044996771030128,0.0949554443359375,-0.9915008544921875,-0.0540313720703125
14.92,0.004311125259846449,0.037164945155382156,-0.002067678142338991,0.0956268310546875,-0.99151611328125,-0.0585479736328125
14.94,0.011169297620654106,0.014190386980772018,-0.0015166702214628458,0.0939483642578125,-0.9897003173828125,-0.068389892578125
14.96,0.0040456079877913,0.006052033510059118,-0.0007781756576150656,0.0959625244140625,-0.9919281005859375,-0.055328369140625
14.98,0.007035805378109217,0.025501897558569908,-0.0009515474666841328,0.096954345703125,-0.9942169189453125,-0.0602569580078125
15,0.00199284334667027,0.018576081842184067,0.0018823222490027547,0.096099853515625,-0.9896392822265625,-0.064971923828125
15.02,-0.00392709719017148,0.013266004621982574,-0.002263686852529645,0.0977630615234375,-0.99163818359375,-0.0560455322265625
15.04,0.004920190200209618,0.019776368513703346,-0.009404420852661133,0.0981597900390625,-0.9911041259765625,-0.059326171875
15.06,0.004788896068930626,-0.0030629015527665615,-0.009381517767906189,0.09881591796875,-0.9903411865234375,-0.062408447265625
15.08,0.006342584267258644,-0.013012205250561237,-0.0033571808598935604,0.0963134765625,-0.9899444580078125,-0.058349609375
15.1,0.008570585399866104,-0.007784419693052769,-0.002088983543217182,0.0972747802734375,-0.9898834228515625,-0.060760498046875
15.12,0.00040426786290481687,0.0045572011731565,0.0018192053539678454,0.0969390869140625,-0.9899139404296875,-0.0599365234375
15.14,-0.004110589157789946,0.031626902520656586,-0.0024977787397801876,0.1001434326171875,-0.9906463623046875,-0.058746337890625
15.16,-0.006426207721233368,0.03209375590085983,-0.006746319588273764,0.0979766845703125,-0.989227294921875,-0.0555572509765625
15.18,0.006825948134064674,0.020323647186160088,-0.0014125406742095947,0.0950164794921875,-0.9912261962890625,-0.05999755859375
15.2,0.007786550559103489,-0.008053398691117764,-0.008972455747425556,0.0962066650390625,-0.9920806884765625,-0.0637664794921875
15.22,0.0004617921367753297,-0.02695225551724434,-0.001496430253610015,0.0901031494140625,-0.9926910400390625,-0.058746337890625
15.24,0.0018018947448581457,-0.022293055430054665,0.010029464960098267,0.09600830078125,-0.989501953125,-0.0587005615234375
15.26,0.005945240613073111,0.008413724601268768,0.008027566596865654,0.1004791259765625,-0.9901275634765625,-0.06158447265625
15.28,-0.006472546607255936,0.017780061811208725,0.006527673918753862,0.0995025634765625,-0.9920806884765625,-0.059295654296875
15.3,-0.007986021228134632,0.023745276033878326,-0.010544253513216972,0.1033935546875,-0.99298095703125,-0.05462646484375
15.32,0.0030746194534003735,0.007668039761483669,-0.011952000670135021,0.0953521728515625,-0.9909210205078125,-0.0590667724609375
15.34,0.01762719638645649,-0.011071027256548405,-0.005216333549469709,0.09722900390625,-0.992340087890625,-0.062347412109375
15.36,0.017193634063005447,-0.024757543578743935,-0.005755091086030006,0.0912017822265625,-0.9878692626953125,-0.061614990234375
15.38,0.006982009392231703,-0.01943335309624672,0.0062800003215670586,0.08953857421875,-0.9912261962890625,-0.059661865234375
15.4,0.002275937469676137,0.008372711949050426,0.013538178987801075,0.090789794921875,-0.9925537109375,-0.0600433349609375
15.42,-0.005278917960822582,0.020321249961853027,0.026495790109038353,0.092681884765625,-0.9915008544921875,-0.0623626708984375
15.44,-0.017607223242521286,0.02112472616136074,0.020981714129447937,0.0975341796875,-0.9908599853515625,-0.057525634765625
15.46,-0.011454255320131779,0.013599964790046215,0.00942253042012453,0.0960693359375,-0.9906768798828125,-0.059539794921875
15.48,-0.0009526127250865102,-0.010675281286239624,0.004472246393561363,0.0943603515625,-0.9888916015625,-0.060028076171875
15.5,0.009973005391657352,-0.02791152521967888,0.0010460896883159876,0.0955810546875,-0.99053955078125,-0.06048583984375
15.52,0.012231365777552128,-0.03367939963936806,0.0032538501545786858,0.094024658203125,-0.990325927734375,-0.0606842041015625
15.54,0.0016378440195694566,-0.026493925601243973,0.0065412563271820545,0.096954345703125,-0.9917755126953125,-0.0581817626953125
15.56,0.0034352114889770746,0.003774498123675585,0.010545585304498672,0.0970001220703125,-0.9878997802734375,-0.05816650390625
15.58,-0.0032258869614452124,0.01948634907603264,0.009839314967393875,0.0989227294921875,-0.9900360107421875,-0.0607147216796875
15.6,-0.013484117574989796,0.012829512357711792,0.005291967187076807,0.097442626953125,-0.9906463623046875,-0.05810546875
15.62,-0.002407231368124485,-0.0004988100845366716,-0.006158560048788786,0.09844970703125,-0.989410400390625,-0.0567626953125
15.64,0.004203000571578741,-0.013088105246424675,-0.004863997455686331,0.0923919677734375,-0.9896240234375,-0.0604095458984375
15.66,0.019179552793502808,-0.01726287603378296,0.00023196132679004222,0.093414306640625,-0.985107421875,-0.061920166015625
15.68,0.001439971150830388,-0.026885943487286568,-0.0005494101205840707,0.095428466796875,-0.9959259033203125,-0.0641326904296875
15.7,-0.005520733073353767,-0.016383234411478043,0.0003251719754189253,0.0933074951171875,-0.9982757568359375,-0.0570831298828125
15.72,-0.010522149503231049,0.0012591425329446793,0.009899236261844635,0.0881195068359375,-0.98785400390625,-0.059783935546875
15.74,-0.015595471486449242,0.007363906595855951,0.02582360804080963,0.0898590087890625,-0.9907073974609375,-0.06103515625
15.76,-0.01860111393034458,0.010746387764811516,0.020381437614560127,0.0961151123046875,-0.9920501708984375,-0.058319091796875
15.78,-0.011777031235396862,0.001671932521276176,0.012763465754687786,0.09661865234375,-0.989837646484375,-0.0609588623046875
15.8,-0.0057036918587982655,-0.009079781360924244,0.004233627114444971,0.0975494384765625,-0.9920501708984375,-0.0549163818359375
15.82,0.002657302189618349,-0.022538332268595695,0.002442651428282261,0.097137451171875,-0.9920806884765625,-0.058319091796875
15.84,0.012002600356936455,-0.008268049918115139,0.004968925844877958,0.0989227294921875,-0.9880828857421875,-0.057830810546875
15.86,0.01056422758847475,0.015438344329595566,0.006053631659597158,0.0984649658203125,-0.9882965087890625,-0.0597076416015625
15.88,0.007327421568334103,0.04035754129290581,0.008320780470967293,0.0976715087890625,-0.989990234375,-0.05584716796875
15.9,0.001163268811069429,0.034391261637210846,0.011549596674740314,0.0927276611328125,-0.992950439453125,-0.061065673828125
15.92,-0.011530422605574131,0.012591691687703133,0.015563513152301311,0.0930328369140625,-0.994537353515625,-0.0592498779296875
15.94,-0.016692427918314934,-0.008554872125387192,0.01738591492176056,0.0933685302734375,-0.9961395263671875,-0.05828857421875
15.96,-0.01954920031130314,-0.014532336965203285,0.01299436204135418,0.095001220703125,-0.9976348876953125,-0.05926513671875
15.98,-0.017360614612698555,-0.019884757697582245,0.00606321869418025,0.097442626953125,-0.9898834228515625,-0.053863525390625
16,-0.0005968143814243376,-0.0004697816038969904,-0.007438741624355316,0.097930908203125,-0.984130859375,-0.0561676025390625
16.02,0.00800093449652195,0.016884706914424896,-0.006936203222721815,0.094940185546875,-0.984039306640625,-0.05859375
16.04,0.016712134703993797,0.038477085530757904,0.0035979305393993855,0.0926666259765625,-0.9853057861328125,-0.057403564453125
16.06,0.01576671190559864,0.03454732522368431,0.008953280746936798,0.085235595703125,-0.989501953125,-0.059783935546875
16.08,-0.00210735946893692,0.012742427177727222,0.026373283937573433,0.0794219970703125,-0.9964752197265625,-0.058349609375
16.1,0.004829908721148968,0.03734550625085831,0.03809252381324768,0.0792236328125,-0.9836578369140625,-0.0594635009765625
16.12,0.008504006080329418,0.05655275657773018,0.054905857890844345,0.07806396484375,-0.9793548583984375,-0.0727386474609375
16.14,-0.00896686315536499,0.054374292492866516,0.05693545565009117,0.0897216796875,-0.9930267333984375,-0.0713653564453125
16.16,-0.03989521786570549,0.03694496676325798,0.04163532704114914,0.095733642578125,-1.010894775390625,-0.0654449462890625
16.18,-0.06555237621068954,-0.006869357544928789,0.012487029656767845,0.0883941650390625,-0.987884521484375,-0.0592041015625
16.2,-0.050880491733551025,-0.03557610511779785,0.015870841220021248,0.08770751953125,-0.98760986328125,-0.0587005615234375
16.22,-0.026988474652171135,-0.04813903197646141,0.01894279755651951,0.096099853515625,-0.9916534423828125,-0.069671630859375
16.24,-0.020330039784312248,-0.045758966356515884,-0.00014620754518546164,0.0948944091796875,-0.9880828857421875,-0.06439208984375
16.26,-0.03044312633574009,-0.03544560819864273,-0.008497614413499832,0.0943450927734375,-0.9902191162109375,-0.0573272705078125
16.28,-0.025116005912423134,-0.016095345839858055,-0.0054576159454882145,0.08892822265625,-0.99200439453125,-0.0532379150390625
16.3,-0.009515208192169666,-0.016626114025712013,0.008922921493649483,0.0850372314453125,-0.997802734375,-0.0604248046875
16.32,0.007162571884691715,-0.002555835759267211,0.017827998846769333,0.085205078125,-0.9918060302734375,-0.060089111328125
16.34,0.014361628331243992,0.012704876251518726,0.02323608100414276,0.0836639404296875,-0.99072265625,-0.06512451171875
16.36,0.016559002920985222,0.025004684925079346,0.018083129078149796,0.0862274169921875,-0.993560791015625,-0.0620880126953125
16.38,0.009875534102320671,0.0314766988158226,0.01179380901157856,0.0849151611328125,-0.9920196533203125,-0.0625762939453125
16.4,0.007312507834285498,0.014079066924750805,0.016753412783145905,0.0841064453125,-0.9898834228515625,-0.0652008056640625
16.42,0.0008021441171877086,-0.001520132296718657,0.02130395732820034,0.0841217041015625,-0.9913482666015625,-0.0664215087890625
16.44,-0.009191367775201797,-0.00905661191791296,0.019040536135435104,0.0859527587890625,-0.9935302734375,-0.06732177734375
16.46,-0.01239088922739029,-0.006737264804542065,0.01745382510125637,0.0839080810546875,-0.9874420166015625,-0.0645294189453125
16.48,-0.015451394021511078,-0.005083175376057625,0.01011122390627861,0.090301513671875,-0.9906768798828125,-0.0674896240234375
16.5,-0.01776301860809326,-0.011629492044448853,0.00031185615807771683,0.0873565673828125,-0.9924774169921875,-0.06512451171875
16.52,-0.02652614936232567,-0.03347859904170036,-0.0036938043776899576,0.0831146240234375,-0.9894256591796875,-0.0663604736328125
16.54,-0.021340975537896156,-0.04098045453429222,0.008413724601268768,0.0823974609375,-0.991973876953125,-0.0628204345703125
16.56,-0.00914289802312851,-0.027937091886997223,0.0057526943273842335,0.086090087890625,-0.995025634765625,-0.0667266845703125
16.58,-0.011619105003774166,-0.011214038357138634,0.0029001825023442507,0.0841217041015625,-0.98944091796875,-0.065093994140625
16.6,-0.009793242439627647,0.01619201898574829,0.003704989794641733,0.0849609375,-0.9901885986328125,-0.0620269775390625
16.62,-0.002817624481394887,0.02990676648914814,0.003756654914468527,0.0865631103515625,-0.99261474609375,-0.06390380859375
16.64,0.0015901734586805105,0.02213246561586857,0.0023257385473698378,0.0832366943359375,-0.99078369140625,-0.0665130615234375
16.66,-0.0008303736103698611,0.0008612662786617875,0.0029768813401460648,0.079376220703125,-0.990997314453125,-0.0668792724609375
16.68,0.008623847737908363,-0.006442985497415066,0.007931426167488098,0.078338623046875,-0.99554443359375,-0.0664520263671875
16.7,0.009068596176803112,-0.005763346794992685,0.01936996914446354,0.077545166015625,-0.9906463623046875,-0.0719451904296875
16.72,0.001005609636195004,0.0013156015193089843,0.018686069175601006,0.0810546875,-0.989471435546875,-0.0687103271484375
16.74,-0.0096835196018219,0.013050287961959839,0.016144348308444023,0.0803070068359375,-0.993804931640625,-0.0688629150390625
16.76,-0.01804558001458645,0.023915452882647514,0.011227887123823166,0.0829925537109375,-0.9911041259765625,-0.0677947998046875
16.78,-0.018855446949601173,0.010716293938457966,0.00490314606577158,0.0849151611328125,-0.9881591796875,-0.0699310302734375
16.8,-0.016466857865452766,-0.020385699346661568,-0.0024051007349044085,0.0844573974609375,-0.9920501708984375,-0.0674285888671875
16.82,-0.013961088843643665,-0.03472389280796051,-0.005185707006603479,0.08392333984375,-0.9940338134765625,-0.066864013671875
16.84,-0.010834005661308765,-0.03683604672551155,-0.0011430287268012762,0.08062744140625,-0.99029541015625,-0.067291259765625
16.86,-0.002290052128955722,-0.007742342073470354,0.004787298385053873,0.082305908203125,-0.9904022216796875,-0.0649871826171875
16.88,-0.007504787761718035,0.01811988092958927,0.0051622712053358555,0.080413818359375,-0.9906158447265625,-0.0708160400390625
16.9,-0.01309130061417818,0.023871777579188347,0.010498980060219765,0.080230712890625,-0.9914703369140625,-0.06329345703125
16.92,-0.009729060344398022,0.02804495021700859,0.01266732532531023,0.081512451171875,-0.99212646484375,-0.0645294189453125
16.94,-0.004622981417924166,0.017892181873321533,0.010431868024170399,0.0798492431640625,-0.98980712890625,-0.0676422119140625
16.96,-0.0027771443128585815,0.008037952706217766,0.01085717510432005,0.0826873779296875,-0.9912872314453125,-0.0690460205078125
16.98,0.005150287412106991,0.014673484489321709,0.009029979817569256,0.0847015380859375,-0.992584228515625,-0.067596435546875
17,0.00780679052695632,0.018968896940350533,0.005392102058976889,0.0833740234375,-0.9904022216796875,-0.0718536376953125
17.02,-0.006639260333031416,0.015517440624535084,-0.001484179636463523,0.0845947265625,-0.9898834228515625,-0.0703125
17.04,-0.009673399850726128,0.014984807930886745,0.0028567728586494923,0.0792694091796875,-0.9928131103515625,-0.067657470703125
17.06,-0.0065508438274264336,0.014064952731132507,0.007416104432195425,0.0820770263671875,-0.99224853515625,-0.0734405517578125
17.08,-0.01423219870775938,0.005887982901185751,0.012781042605638504,0.079345703125,-0.9910430908203125,-0.0708160400390625
17.1,-0.013763749040663242,0.011995942331850529,0.013920076191425323,0.08062744140625,-0.992462158203125,-0.0683746337890625
17.12,-0.01091709639877081,0.017061274498701096,0.009712016209959984,0.081085205078125,-0.9905853271484375,-0.0709381103515625
17.14,-0.013998639769852161,0.012577311135828495,0.0035507925786077976,0.0812530517578125,-0.9949951171875,-0.0716705322265625
17.16,-0.010433199815452099,0.008525311015546322,-0.004189152270555496,0.0830078125,-0.9926605224609375,-0.0689849853515625
17.18,0.00023542344570159912,0.003774764481931925,0.0022509037517011166,0.0784912109375,-0.988983154296875,-0.0723724365234375
17.2,0.0023435817565768957,0.009070194326341152,0.0014319816837087274,0.0807647705078125,-0.993011474609375,-0.0715179443359375
17.22,-0.003305249148979783,0.014376808889210224,0.00040027310024015605,0.0788421630859375,-0.99078369140625,-0.07568359375
17.24,-0.007781490217894316,0.008201470598578453,0.0029025792609900236,0.0772705078125,-0.9911956787109375,-0.0674896240234375
17.26,0.0060152821242809296,0.013246563263237476,0.005247492343187332,0.0763397216796875,-0.9924468994140625,-0.070892333984375
17.28,0.0017148094484582543,-0.007288006599992514,0.005035238806158304,0.076995849609375,-0.991180419921875,-0.07623291015625
17.3,0.005023254547268152,-0.004397944081574678,0.009753560647368431,0.0772857666015625,-0.992889404296875,-0.068756103515625
17.32,0.0048799761570990086,0.011507252231240273,0.004867726005613804,0.08074951171875,-0.9932708740234375,-0.07489013671875
17.34,-0.005546831991523504,0.007758054416626692,-0.00256382510997355,0.080169677734375,-0.9927825927734375,-0.07171630859375
17.36,-0.0041582598350942135,0.003566771512851119,-0.004240285139530897,0.08245849609375,-0.99072265625,-0.067657470703125
17.38,-0.0017784589435905218,-0.020855214446783066,-0.007445399183779955,0.0820465087890625,-0.9905548095703125,-0.072479248046875
17.4,0.007553790230304003,-0.019515378400683403,-0.0037417414132505655,0.0787200927734375,-0.99200439453125,-0.0690765380859375
17.42,0.011606588959693909,-0.0037864823825657368,0.005471197888255119,0.07647705078125,-0.99041748046875,-0.0764312744140625
17.44,0.00029294771957211196,0.007740743923932314,0.0034759577829390764,0.0800628662109375,-0.9913177490234375,-0.0709075927734375
17.46,-0.010995392687618732,0.017524665221571922,0.00010812433902174234,0.0771484375,-0.9905548095703125,-0.066925048828125
17.48,-0.0007313040550798178,0.020193684846162796,0.0007142598042264581,0.079071044921875,-0.9918365478515625,-0.068267822265625
17.5,0.007252852898091078,0.00999004952609539,-0.0030027141328901052,0.0802154541015625,-0.9938812255859375,-0.0730438232421875
17.52,0.006967894732952118,-0.006863498594611883,-0.011948804371058941,0.0762939453125,-0.9898529052734375,-0.070281982421875
17.54,0.013377857394516468,-0.012101403437554836,-0.00902491994202137,0.0762939453125,-0.99127197265625,-0.0703277587890625
17.56,0.011744806542992592,-0.010223076678812504,-0.002537193475291133,0.07855224609375,-0.992034912109375,-0.0722503662109375
17.58,0.006599046755582094,0.002566488226875663,-0.0005571332876570523,0.077545166015625,-0.9890899658203125,-0.06951904296875
17.6,-0.0006325007416307926,0.014809572137892246,0.00033209618413820863,0.0788421630859375,-0.9913482666015625,-0.0698394775390625
17.62,-0.004954012110829353,0.013126187957823277,-0.003307912265881896,0.0781097412109375,-0.993316650390625,-0.069427490234375
17.64,-0.0008791094878688455,0.004393683280795813,-0.009063269942998886,0.078887939453125,-0.9915313720703125,-0.06732177734375
17.66,0.006935936864465475,-0.012938168831169605,-0.009304552339017391,0.0779876708984375,-0.9899139404296875,-0.0704498291015625
17.68,0.009911486878991127,-0.01865597628057003,-0.00947898905724287,0.07861328125,-0.9909515380859375,-0.0698089599609375
17.7,0.01170539204031229,-0.015984559431672096,-0.011844675056636333,0.077850341796875,-0.9941253662109375,-0.0719146728515625
17.72,0.0059662796556949615,-0.019994480535387993,-0.005292233545333147,0.0769195556640625,-0.99200439453125,-0.069976806640625
17.74,-0.00019387812062632293,-0.018275409936904907,-0.00045912896166555583,0.0780792236328125,-0.9921112060546875,-0.0682373046875
17.76,-0.002294047037139535,-0.008529306389391422,0.011492605321109295,0.0760345458984375,-0.991851806640625,-0.0699615478515625
17.78,-0.003215500619262457,0.009653426706790924,0.0141728101298213,0.0793609619140625,-0.99285888671875,-0.0698089599609375
17.8,-0.0065132929012179375,0.017360348254442215,0.02148105762898922,0.0819091796875,-0.9919891357421875,-0.0692138671875
17.82,-0.004588626325130463,0.013517140410840511,0.018939603120088577,0.0845794677734375,-0.9872283935546875,-0.066009521484375
17.84,0.007700530346482992,0.022786805406212807,0.015752332285046577,0.081817626953125,-0.98944091796875,-0.066986083984375
17.86,0.012506471015512943,0.016925187781453133,0.021280787885189056,0.08062744140625,-0.9921875,-0.0751190185546875
17.88,-0.010624680668115616,0.004327636677771807,0.028018850833177567,0.0830078125,-0.9922027587890625,-0.06884765625
17.9,-0.008171643130481243,0.03225407749414444,0.019993148744106293,0.083648681640625,-0.9932098388671875,-0.061676025390625
17.92,-0.007247526664286852,0.035662923008203506,0.01805969327688217,0.0859375,-0.9936981201171875,-0.0704345703125
17.94,-0.0035108451265841722,0.029694512486457825,0.007669371087104082,0.0891571044921875,-0.985626220703125,-0.06402587890625
17.96,0.010039851069450378,0.014161624945700169,-0.0014229270163923502,0.0857391357421875,-0.9895477294921875,-0.0697174072265625
17.98,0.019537482410669327,-0.01053599826991558,-0.007539409212768078,0.084991455078125,-0.99127197265625,-0.0706939697265625
18,0.0238810982555151,-0.015243135392665863,-0.0032173648942261934,0.0809783935546875,-0.9897003173828125,-0.07183837890625
18.02,0.0180000402033329,-0.005348692648112774,-0.0009243832319043577,0.0798187255859375,-0.9921722412109375,-0.073089599609375
18.04,-0.007864580489695072,-0.01187876332551241,0.0037060549948364496,0.07574462890625,-0.9933929443359375,-0.06964111328125
18.06,-0.006371080409735441,0.0006402239087037742,0.018383268266916275,0.07659912109375,-0.9919586181640625,-0.0654754638671875
18.08,-0.010381801053881645,0.010165286250412464,0.023565780371427536,0.079925537109375,-0.9895782470703125,-0.07391357421875
18.1,-0.0243117306381464,0.002496979897841811,0.022847525775432587,0.08251953125,-0.9899749755859375,-0.06951904296875
18.12,-0.022288527339696884,0.01925918273627758,0.015963787212967873,0.0853271484375,-0.9956817626953125,-0.0652618408203125
18.14,-0.031268708407878876,0.007562578655779362,-0.0038725025951862335,0.0885772705078125,-0.9928131103515625,-0.06622314453125
18.16,-0.019343869760632515,0.0022748722694814205,-0.010135725140571594,0.084747314453125,-0.9889678955078125,-0.0577850341796875
18.18,0.011247594840824604,0.000824248360004276,-0.015901735052466393,0.0890045166015625,-0.991943359375,-0.06817626953125
18.2,0.013949903659522533,-0.006539125461131334,-0.020264791324734688,0.0848846435546875,-0.9914703369140625,-0.0679473876953125
18.22,0.012974121607840061,0.0028357338160276413,-0.014763233251869678,0.0805816650390625,-0.9941558837890625,-0.0616912841796875
18.24,0.01840830221772194,0.035715121775865555,-0.008797219954431057,0.0791473388671875,-0.992950439453125,-0.0633697509765625
18.26,0.018388062715530396,0.059238288551568985,0.004162520635873079,0.0771026611328125,-0.9903564453125,-0.067138671875
18.28,0.01852734573185444,0.07708093523979187,0.007841677404940128,0.0768280029296875,-0.9931640625,-0.067352294921875
18.3,0.007698133587837219,0.0747421458363533,-0.000580036488827318,0.076416015625,-0.99365234375,-0.0714263916015625
18.32,0.0020120181143283844,0.05476444587111473,0.00634924229234457,0.07208251953125,-0.99151611328125,-0.0667572021484375
18.34,0.00896526500582695,0.0412244014441967,0.011766644194722176,0.0767822265625,-0.99139404296875,-0.0723114013671875
18.36,-0.0022983080707490444,0.02797064743936062,-0.0009600695921108127,0.083831787109375,-0.9949493408203125,-0.072845458984375
18.38,-0.0029377329628914595,0.04811506345868111,-0.0062642875127494335,0.082366943359375,-0.9869384765625,-0.065185546875
18.4,-0.0024703482631593943,0.056001484394073486,-0.021985992789268494,0.086334228515625,-0.988800048828125,-0.0704193115234375
18.42,-0.009912817738950253,0.035897545516490936,-0.028683044016361237,0.0784454345703125,-0.994049072265625,-0.0694122314453125
18.44,-0.0014077469240874052,0.017647702246904373,-0.02707689069211483,0.075592041015625,-0.98974609375,-0.067169189453125
18.46,0.0002892192860599607,-0.012791695073246956,-0.03195606917142868,0.0719757080078125,-0.994354248046875,-0.0719451904296875
18.48,-0.0052112736739218235,-0.028433505445718765,-0.025831064209342003,0.06744384765625,-0.9964752197265625,-0.066375732421875
18.5,0.003637877991423011,-0.018128670752048492,-0.020437363535165787,0.0707855224609375,-0.9923858642578125,-0.06903076171875
18.52,-0.008898420259356499,-0.015366972424089909,-0.015238873660564423,0.0742645263671875,-0.994903564453125,-0.0680389404296875
18.54,-0.0023134879302233458,0.003942543640732765,-0.01936597377061844,0.0788726806640625,-0.9952239990234375,-0.0591888427734375
18.56,0.010633203200995922,0.01432061567902565,-0.018266621977090836,0.0838775634765625,-0.990142822265625,-0.0651092529296875
18.58,0.012864399701356888,0.012514992617070675,-0.02544916793704033,0.0847625732421875,-0.986358642578125,-0.0640106201171875
18.6,0.02616795524954796,0.01336001418530941,-0.031913191080093384,0.0873870849609375,-0.9919281005859375,-0.060638427734375
18.62,0.037890657782554626,0.013374394737184048,-0.035408858209848404,0.0894775390625,-0.995361328125,-0.06719970703125
18.64,0.03105245716869831,0.00950988195836544,-0.03169907256960869,0.084259033203125,-0.98828125,-0.067291259765625
18.66,0.029934728518128395,0.01889965496957302,-0.022641928866505623,0.0806732177734375,-0.98931884765625,-0.0636749267578125
18.68,0.021864818409085274,0.023838220164179802,-0.013283048756420612,0.0786285400390625,-0.992828369140625,-0.06964111328125
18.7,0.0039265644736588,0.027530960738658905,-0.0024852619972079992,0.076873779296875,-0.9936370849609375,-0.0668792724609375
18.72,0.007729825098067522,0.041917357593774796,0.0005725796218030155,0.0767059326171875,-0.9930572509765625,-0.0681304931640625
18.74,-0.004206196404993534,0.029921947047114372,0.0025238776579499245,0.079193115234375,-0.99072265625,-0.0701751708984375
18.76,-0.009877930395305157,0.01008246187120676,0.002180862706154585,0.0827789306640625,-0.990966796875,-0.06634521484375
18.78,-0.0026253440883010626,-0.012153069488704205,-0.007573763839900494,0.08154296875,-0.9905853271484375,-0.068450927734375
18.8,-0.003768372815102339,-0.0344192273914814,-0.007835020311176777,0.0866851806640625,-0.9888153076171875,-0.0669708251953125
18.82,0.0034855452831834555,-0.03051050566136837,-0.007535147946327925,0.08917236328125,-0.9908905029296875,-0.0650482177734375
18.84,0.0007470166892744601,-0.020057331770658493,-0.013378921896219254,0.091217041015625,-0.9930267333984375,-0.06475830078125
18.86,0.005723133217543364,-0.00015925703337416053,-0.009392969310283661,0.0886383056640625,-0.98760986328125,-0.06182861328125
18.88,0.00714659271761775,0.010237190872430801,-0.011906460858881474,0.0915985107421875,-0.9925079345703125,-0.0652313232421875
18.9,0.004627508576959372,0.01392620149999857,-0.014008759520947933,0.0886383056640625,-0.9930267333984375,-0.0612030029296875
18.92,0.0018785938154906034,0.007535680662840605,-0.0029848709236830473,0.0875701904296875,-0.9897613525390625,-0.062408447265625
18.94,0.0046213832683861256,-0.001437308033928275,-0.01131071150302887,0.093109130859375,-0.992889404296875,-0.0625457763671875
18.96,0.005685050040483475,-0.020543357357382774,-0.020476512610912323,0.0916900634765625,-0.9954681396484375,-0.060882568359375
18.98,0.022768961265683174,-0.017372066155076027,-0.02467551827430725,0.092071533203125,-0.98974609375,-0.0610198974609375
19,0.03262638673186302,-0.02184431254863739,-0.02058969810605049,0.08966064453125,-0.9907073974609375,-0.068817138671875
19.02,0.03453773632645607,-0.012012188322842121,-0.019647471606731415,0.0886383056640625,-0.990264892578125,-0.0628662109375
19.04,0.02875388413667679,0.002508964156731963,-0.004518585279583931,0.086151123046875,-0.98980712890625,-0.0649566650390625
19.06,0.01483300793915987,0.015120629221200943,0.00410473020747304,0.0876922607421875,-0.99267578125,-0.0664520263671875
19.08,0.0016040218761190772,0.01720268838107586,0.011546134948730469,0.084197998046875,-0.9930572509765625,-0.063323974609375
19.1,0.001945439144037664,0.028248682618141174,0.01122176181524992,0.08917236328125,-0.9903717041015625,-0.0644683837890625
19.12,-0.0067694890312850475,0.0025486452504992485,0.010192450135946274,0.0903167724609375,-0.9873809814453125,-0.0688934326171875
19.14,-0.00875034835189581,-0.01973349042236805,0.0033361418172717094,0.0960540771484375,-0.9911346435546875,-0.0626983642578125
19.16,-0.00571833923459053,-0.02293327823281288,-0.0015281217638403177,0.0955657958984375,-0.9893951416015625,-0.0653228759765625
19.18,-0.013295033015310764,-0.029588785022497177,-0.012116850353777409,0.0974273681640625,-0.9893341064453125,-0.0645751953125
19.2,-0.019097793847322464,-0.027775704860687256,-0.015292936004698277,0.096160888671875,-0.9918212890625,-0.055999755859375
19.22,-0.003518834710121155,-0.012429239228367805,-0.010823353193700314,0.0949554443359375,-0.9924163818359375,-0.0594024658203125
19.24,-0.0013853764394298196,-0.011885687708854675,-0.0031675638165324926,0.091094970703125,-0.9902191162109375,-0.06292724609375
19.26,0.00461632339283824,-0.00038535939529538155,0.0007166566210798919,0.0903167724609375,-0.9912109375,-0.0572357177734375
19.28,0.014095312915742397,0.0177539624273777,0.009118130430579185,0.0876007080078125,-0.99432373046875,-0.061431884765625
19.3,0.008078699000179768,0.019287411123514175,0.009260609745979309,0.0930633544921875,-0.990142822265625,-0.0597991943359375
19.32,0.0049763829447329044,0.024890169501304626,0.00956687331199646,0.092803955078125,-0.989471435546875,-0.0550079345703125
19.34,0.013076920062303543,0.02845134772360325,0.004052266012877226,0.093231201171875,-0.9906005859375,-0.05902099609375
19.36,0.017226390540599823,0.018969696015119553,0.0017904432024806738,0.094573974609375,-0.9910736083984375,-0.061767578125
19.38,0.0028778119012713432,-0.01005210168659687,-0.007256581448018551,0.09228515625,-0.9904327392578125,-0.06005859375
19.4,0.006838198751211166,-0.00839907769113779,-0.003418167121708393,0.0907135009765625,-0.9909820556640625,-0.0557861328125
19.42,0.012627644464373589,0.004157727118581533,-0.002232261700555682,0.0916748046875,-0.9888763427734375,-0.06463623046875
19.44,0.0011432950850576162,-0.0003510046226438135,0.001675128354690969,0.0904693603515625,-0.9902496337890625,-0.0622100830078125
19.46,-0.009296296164393425,0.0035835495218634605,0.0005510080372914672,0.08758544921875,-0.9930572509765625,-0.055328369140625
19.48,-0.00595456175506115,0.009737049229443073,0.003981958609074354,0.089874267578125,-0.992431640625,-0.061187744140625
19.5,-0.004252535756677389,0.004731105640530586,0.004516721237450838,0.089508056640625,-0.9895782470703125,-0.059844970703125
19.52,0.0005105279851704836,-0.003338006092235446,0.0035119105596095324,0.094268798828125,-0.988616943359375,-0.058502197265625
19.54,-0.00205276464112103,-0.009111206978559494,-0.0019315907265990973,0.0918731689453125,-0.99310302734375,-0.0610809326171875
19.56,0.0032530513126403093,-0.014443919993937016,0.0001579254458192736,0.0894775390625,-0.990753173828125,-0.0589599609375
19.58,0.010178335011005402,-0.010901116766035557,0.006203301250934601,0.088623046875,-0.9896392822265625,-0.0629119873046875
19.6,0.004139084834605455,0.007439540233463049,0.00498117646202445,0.0909423828125,-0.99078369140625,-0.060302734375
19.62,0.0013097425689920783,0.02532346546649933,0.008135690353810787,0.0862274169921875,-0.9920654296875,-0.06103515625
19.64,-0.0070733558386564255,0.025433188304305077,0.007271228823810816,0.089752197265625,-0.9903411865234375,-0.0608673095703125
19.66,-0.010262224823236465,0.010272344574332237,0.0095069520175457,0.084869384765625,-0.9920196533203125,-0.0604400634765625
19.68,-0.00398755120113492,-0.010404437780380249,0.009484048932790756,0.0869903564453125,-0.9888458251953125,-0.0615692138671875
19.7,0.003067695302888751,-0.01914013922214508,0.007185741327702999,0.088531494140625,-0.9911956787109375,-0.0631561279296875
19.72,0.0028306739404797554,-0.014815431088209152,0.004592887591570616,0.0898284912109375,-0.993927001953125,-0.0618133544921875
19.74,0.0031156321056187153,-0.0005736448802053928,0.0008934905636124313,0.08953857421875,-0.991607666015625,-0.0597076416015625
19.76,-0.005364405456930399,-0.005579056218266487,-0.0018421085551381111,0.091278076171875,-0.989654541015625,-0.058258056640625
19.78,-0.002365952357649803,-0.006812898442149162,-0.004776113200932741,0.088714599609375,-0.9923858642578125,-0.0574493408203125
19.8,0.0082102594897151,-0.012262791395187378,0.0007374293054454029,0.0848388671875,-0.9924163818359375,-0.061553955078125
19.82,0.008713330142199993,-0.017311612144112587,0.0046964846551418304,0.0854339599609375,-0.9913330078125,-0.0623626708984375
19.84,0.0030839405953884125,-0.009431851096451283,0.009423862211406231,0.0854644775390625,-0.9925079345703125,-0.060211181640625
19.86,-0.007464307826012373,-0.0002348908019484952,0.00743181724101305,0.08721923828125,-0.992584228515625,-0.0593719482421875
19.88,-0.0006881608278490603,0.0176229365170002,0.004652542527765036,0.0887603759765625,-0.989654541015625,-0.0575714111328125
19.9,-0.004145210143178701,0.014259097166359425,0.00948245171457529,0.0884246826171875,-0.989471435546875,-0.0635833740234375
19.92,-0.0046301716938614845,-0.004965197294950485,0.0025102957151830196,0.091033935546875,-0.992706298828125,-0.05889892578125
19.94,0.004325506277382374,-0.006037386134266853,0.0016650082543492317,0.0874786376953125,-0.9907989501953125,-0.06036376953125
19.96,0.007138337008655071,-0.006913033314049244,0.0015156050212681293,0.08599853515625,-0.9908905029296875,-0.0636138916015625
19.98,-0.0021941782906651497,-0.01555072981864214,0.0007989483419805765,0.0847320556640625,-0.99005126953125,-0.062957763671875
20,-0.01022946834564209,-0.014754445292055607,0.0057532270438969135,0.0841827392578125,-0.994354248046875,-0.05841064453125
20.02,-0.00011851066665258259,0.008444883860647678,0.011149856261909008,0.0869140625,-0.9914398193359375,-0.0592498779296875
20.04,0.0073380740359425545,0.017187776044011116,0.010428406298160553,0.0882415771484375,-0.9915008544921875,-0.068267822265625
20.06,-0.007702128030359745,0.007450193166732788,0.006906908005475998,0.08856201171875,-0.9899444580078125,-0.0595245361328125
20.08,-0.007865645922720432,0.010464625433087349,0.0032109732273966074,0.0886993408203125,-0.992156982421875,-0.05517578125
20.1,0.00018349179299548268,0.008073905482888222,-0.00038482676609419286,0.0864410400390625,-0.99267578125,-0.0631866455078125
20.12,0.005163602996617556,-0.0094520915299654,0.0027601001784205437,0.08685302734375,-0.9907379150390625,-0.0648956298828125
20.14,-0.00700837466865778,-0.021984660997986794,0.009636914357542992,0.0841827392578125,-0.9915008544921875,-0.0614776611328125
20.16,-0.0023728765081614256,-0.0026527747977524996,0.008841427974402905,0.08447265625,-0.9920654296875,-0.057952880859375
20.18,-0.00003728425508597866,0.015680693089962006,0.003665308468043804,0.0886688232421875,-0.9923095703125,-0.0645751953125
20.2,-0.016392821446061134,0.0044408212415874004,0.007708786055445671,0.08740234375,-0.9916839599609375,-0.0604248046875
20.22,-0.011418835259974003,0.012119779363274574,0.008265386335551739,0.0885162353515625,-0.9929656982421875,-0.0562896728515625
20.24,-0.00202320353128016,0.01555072981864214,0.005691708065569401,0.0897369384765625,-0.9911346435546875,-0.0645751953125
20.26,-0.0012202603975310922,-0.0011195929255336523,0.0006689860601909459,0.087615966796875,-0.991943359375,-0.0601043701171875
20.28,-0.00010759170982055366,-0.002719087526202202,-0.005270928610116243,0.08941650390625,-0.9918060302734375,-0.0572967529296875
20.3,0.0019142802339047194,0.00007297061529243365,-0.010831874795258045,0.0865936279296875,-0.99066162109375,-0.0588226318359375
20.32,0.009607885964214802,0.006738330237567425,-0.003704190719872713,0.085174560546875,-0.99017333984375,-0.0615234375
20.34,0.003687146585434675,0.0016229304019361734,0.00487251952290535,0.08624267578125,-0.99041748046875,-0.06280517578125
20.36,-0.0051534827798604965,0.00498011102899909,0.006027532275766134,0.0825042724609375,-0.9935760498046875,-0.0594940185546875
20.38,0.0014149374328553677,0.0188413318246603,0.009191101416945457,0.0824737548828125,-0.989959716796875,-0.0592193603515625
20.4,-0.004848018288612366,0.013219399377703667,0.005618204362690449,0.085845947265625,-0.9915771484375,-0.0654449462890625
20.42,-0.01035383716225624,0.0023875238839536905,0.00381471193395555,0.08795166015625,-0.9948883056640625,-0.0577392578125
20.44,0.003737214021384716,0.012805277481675148,-0.002685797866433859,0.086944580078125,-0.990264892578125,-0.060455322265625
20.46,0.0001507349224993959,-0.005161206237971783,-0.0012066783383488655,0.083984375,-0.989410400390625,-0.0678558349609375
20.48,-0.0029909962322562933,-0.011518438346683979,-0.0005877596559002995,0.0863037109375,-0.9904022216796875,-0.0573577880859375
20.5,0.002386192325502634,-0.0030075078830122948,0.002491120947524905,0.0816802978515625,-0.9949188232421875,-0.06298828125
20.52,-0.005782255437225103,-0.006732737645506859,0.002386725042015314,0.0832672119140625,-0.989532470703125,-0.0655059814453125
20.54,-0.008400142192840576,-0.012911804020404816,0.0030804784037172794,0.0816802978515625,-0.994171142578125,-0.0608978271484375
20.56,-0.00021172130072955042,-0.011805526912212372,0.005883455276489258,0.0827484130859375,-0.991668701171875,-0.061431884765625
20.58,0.005041896365582943,-0.010573015548288822,0.004283960908651352,0.0864105224609375,-0.990203857421875,-0.0654449462890625
20.6,-0.005012867972254753,-0.007135940250009298,0.00914609432220459,0.086273193359375,-0.9898529052734375,-0.06268310546875
20.62,-0.01176025252789259,0.0018583538476377726,0.0084837656468153,0.0904388427734375,-0.99267578125,-0.0587310791015625
20.64,-0.012651612982153893,0.010201770812273026,0.0009060074225999415,0.0912322998046875,-0.9935455322265625,-0.061553955078125
20.66,-0.009090433828532696,0.0012319782981649041,-0.0041587925516068935,0.087127685546875,-0.9909210205078125,-0.0610198974609375
20.68,-0.001832521171309054,-0.0152561841532588,-0.006201703101396561,0.0867767333984375,-0.9898529052734375,-0.0614776611328125
20.7,0.00689119566231966,-0.03021249733865261,-0.0031345405150204897,0.0854949951171875,-0.9918975830078125,-0.0637969970703125
20.72,0.004191549029201269,-0.029292108491063118,0.007967378944158554,0.08404541015625,-0.9911041259765625,-0.0632476806640625
20.74,-0.005563876125961542,-0.007810784969478846,0.01534726470708847,0.0860748291015625,-0.99072265625,-0.063323974609375
20.76,-0.005417935084551573,0.03255421295762062,0.012590359896421432,0.087554931640625,-0.99139404296875,-0.0607757568359375
20.78,-0.012177570722997189,0.045035917311906815,0.013136308640241623,0.0889434814453125,-0.990997314453125,-0.06536865234375
20.8,-0.012179967015981674,0.03947044536471367,0.004144677426666021,0.090484619140625,-0.9897308349609375,-0.0598297119140625
20.82,-0.005688778590410948,0.009666209109127522,0.0017699368763715029,0.0855865478515625,-0.9934844970703125,-0.0667877197265625
20.84,0.0034669029992073774,-0.021047761663794518,-0.007813980802893639,0.087066650390625,-0.9908905029296875,-0.066650390625
20.86,0.005367601290345192,-0.031863924115896225,0.000827177835162729,0.0809783935546875,-0.9923858642578125,-0.0644683837890625
20.88,0.006140450481325388,-0.008073905482888222,0.010725614614784718,0.085906982421875,-0.9898223876953125,-0.0672760009765625
20.9,-0.002439455594867468,0.01913641020655632,0.016808807849884033,0.0849609375,-0.99005126953125,-0.068389892578125
20.92,-0.02142033725976944,0.0370488315820694,0.008109325543045998,0.0863800048828125,-0.994659423828125,-0.06329345703125
20.94,-0.017947841435670853,0.0416979119181633,0.0026964505668729544,0.08575439453125,-0.9934234619140625,-0.061737060546875
20.96,-0.006587328854948282,0.015335813164710999,-0.005387308541685343,0.085968017578125,-0.991180419921875,-0.0650177001953125
20.98,0.008972189389169216,-0.014214089140295982,-0.0038245655596256256,0.0826416015625,-0.9908294677734375,-0.0668182373046875
21,0.011944809928536415,-0.037450436502695084,0.001115598133765161,0.081787109375,-0.99017333984375,-0.070892333984375
21.02,0.00430286955088377,-0.02834641933441162,0.006695453077554703,0.081207275390625,-0.994171142578125,-0.0643310546875
21.04,-0.004177700728178024,0.0008596684201620519,0.009712016209959984,0.084136962890625,-0.9920501708984375,-0.0643157958984375
21.06,-0.007865645922720432,0.033956367522478104,0.009519735351204872,0.083282470703125,-0.9910736083984375,-0.0633544921875
21.08,-0.00737189594656229,0.03781209513545036,0.005819273181259632,0.085418701171875,-0.991424560546875,-0.0644989013671875
21.1,0.002281530061736703,0.023676300421357155,0.001785383210517466,0.083526611328125,-0.9932861328125,-0.0635223388671875
21.12,-0.0006897587445564568,-0.005618204362690449,0.001892175991088152,0.0813751220703125,-0.990264892578125,-0.0684051513671875
21.14,0.0014961638953536749,-0.017793377861380577,0.005002215504646301,0.0791473388671875,-0.991241455078125,-0.062896728515625
21.16,-0.0017339842161163688,-0.009302687831223011,0.005032841581851244,0.082244873046875,-0.99102783203125,-0.0664825439453125
21.18,-0.005750563926994801,0.01290567871183157,0.007481884676963091,0.082183837890625,-0.99127197265625,-0.06365966796875
21.2,-0.010310694575309753,0.027479294687509537,0.001654089312069118,0.0836181640625,-0.990509033203125,-0.0659942626953125
21.22,-0.014067881740629673,0.011869176290929317,0.0013185309944674373,0.0803375244140625,-0.99072265625,-0.0627593994140625
21.24,-0.005556153133511543,-0.009923737496137619,-0.0011321097845211625,0.0789031982421875,-0.9961700439453125,-0.063690185546875
21.26,-0.0026234800461679697,-0.028271319344639778,0.007127950433641672,0.078643798828125,-0.991912841796875,-0.0644989013671875
21.28,0.006951116491109133,-0.022546054795384407,0.008116516284644604,0.0841522216796875,-0.992156982421875,-0.0633697509765625
21.3,0.003620301140472293,-0.0024170849937945604,0.005184908397495747,0.082977294921875,-0.99267578125,-0.0639190673828125
21.32,0.0011353056179359555,0.01751374639570713,0.0020266654901206493,0.0872039794921875,-0.992218017578125,-0.0609893798828125
21.34,0.005666940473020077,0.020680245012044907,-0.0018485001055523753,0.0850677490234375,-0.9914093017578125,-0.0641021728515625
21.36,0.009135707281529903,0.012181831523776054,-0.0041609229519963264,0.085235595703125,-0.9922027587890625,-0.0641632080078125
21.38,0.010543188080191612,0.00023568976030219346,0.00039281626231968403,0.0797271728515625,-0.9900970458984375,-0.06689453125
21.4,0.004723649006336927,-0.014388793148100376,0.005003014579415321,0.0793609619140625,-0.9924468994140625,-0.0665435791015625
21.42,-0.0007720504072494805,-0.02027677558362484,0.005718073341995478,0.0792694091796875,-0.9954071044921875,-0.064483642578125
21.44,-0.002371811307966709,-0.009593771770596504,0.008534898981451988,0.0782623291015625,-0.99114990234375,-0.0656890869140625
21.46,-0.00535508431494236,-0.0020458402577787638,0.006642189808189869,0.0845947265625,-0.9903717041015625,-0.065704345703125
21.48,-0.004358263220638037,0.00185036426410079,0.0030093719251453876,0.084869384765625,-0.992034912109375,-0.0658721923828125
21.5,0.003284742822870612,0.0043928842060267925,0.0010663296561688185,0.0849456787109375,-0.989654541015625,-0.0667266845703125
21.52,0.008884837850928307,0.00033635724685154855,0.006252569612115622,0.0831146240234375,-0.9904632568359375,-0.0662841796875
21.54,0.0046421559527516365,-0.007101585157215595,0.0032381375785917044,0.085296630859375,-0.9931182861328125,-0.065582275390625
21.56,0.003369697602465749,-0.004717523697763681,-0.001041295938193798,0.08538818359375,-0.9915313720703125,-0.064453125
21.58,0.007260842248797417,0.006942594423890114,-0.0024895230308175087,0.083770751953125,-0.9901580810546875,-0.0655975341796875
21.6,0.0011033476330339909,0.0028972530271857977,0.0008306399104185402,0.08489990234375,-0.99090576171875,-0.0673828125
21.62,-0.00014647385978605598,0.000029294771593413316,-0.0025302693247795105,0.0841217041015625,-0.9928436279296875,-0.0642852783203125
21.64,-0.0036943370942026377,-0.008863000199198723,-0.003355849301442504,0.0816802978515625,-0.99090576171875,-0.0647735595703125
21.66,0.0020610203500837088,-0.01411422062665224,0.0054216631688177586,0.08270263671875,-0.992767333984375,-0.0626220703125
21.68,-0.0009760485263541341,-0.013531520962715149,0.0041675809770822525,0.0822601318359375,-0.9904632568359375,-0.06591796875
21.7,0.0009592706337571144,-0.0049617355689406395,0.0065196845680475235,0.0843048095703125,-0.9888916015625,-0.0630340576171875
21.72,-0.004307663068175316,0.010935738682746887,0.005708752200007439,0.0890655517578125,-0.9911041259765625,-0.06134033203125
21.74,-0.007225954905152321,0.01841416023671627,-0.0028003137558698654,0.0868988037109375,-0.9930877685546875,-0.061553955078125
21.76,-0.002205097349360585,0.020186761394143105,-0.004285026341676712,0.085784912109375,-0.992218017578125,-0.0592803955078125
21.78,0.008014783263206482,0.01407667063176632,-0.005607019178569317,0.0851898193359375,-0.989227294921875,-0.0639495849609375
21.8,0.009413208812475204,-0.0010391654213890433,-0.006481867749243975,0.081756591796875,-0.9929962158203125,-0.0626220703125
21.82,0.008027832955121994,-0.004393949639052153,-0.005793706979602575,0.0793609619140625,-0.9939727783203125,-0.0618896484375
21.84,0.011427624151110649,0.010773551650345325,0.007499461527913809,0.0802764892578125,-0.9937896728515625,-0.0627288818359375
21.86,0.002055960241705179,0.01762613095343113,0.012808739207684994,0.0825042724609375,-0.991455078125,-0.06732177734375
21.88,-0.007567372173070908,0.018147844821214676,0.007260309532284737,0.084930419921875,-0.9891204833984375,-0.060760498046875
21.9,-0.004757737275213003,0.019330820068717003,0.008110390976071358,0.0830535888671875,-0.9905548095703125,-0.062774658203125
21.92,-0.0000031957933970261365,0.011269166134297848,0.0026162895374000072,0.0878143310546875,-0.9935302734375,-0.0663604736328125
21.94,-0.0030024477746337652,0.00001864212754298933,-0.006514891050755978,0.086517333984375,-0.990966796875,-0.063690185546875
21.96,0.0003813646617345512,0.0032855418976396322,-0.009197759442031384,0.08673095703125,-0.9876251220703125,-0.060943603515625
21.98,0.00381444557569921,0.0027486486360430717,-0.00762889115139842,0.086029052734375,-0.9932403564453125,-0.0652313232421875
22,0.002222407842054963,0.004505003336817026,-0.012426309287548065,0.082000732421875,-0.992828369140625,-0.0658111572265625
22.02,-0.0030716899782419205,-0.001731587341055274,-0.00498224189504981,0.076080322265625,-0.992095947265625,-0.0636749267578125
22.04,-0.00042583944741636515,0.0011640676530078053,0.011936554685235023,0.0757598876953125,-0.9919281005859375,-0.0660552978515625
22.06,-0.0005398227367550135,0.006433132104575634,0.020592892542481422,0.0809173583984375,-0.9906005859375,-0.06561279296875
22.08,-0.008625179529190063,0.014080665074288845,0.019578494131565094,0.0821075439453125,-0.9928436279296875,-0.063079833984375
22.1,-0.008320514112710953,0.0353207066655159,0.010900851339101791,0.08734130859375,-0.9938812255859375,-0.0615386962890625
22.12,-0.005696235224604607,0.03787201642990112,0.0014988270122557878,0.08953857421875,-0.988494873046875,-0.0616912841796875
22.14,0.0032738239970058203,0.03080318681895733,-0.015322230756282806,0.089111328125,-0.9904937744140625,-0.0616302490234375
22.16,0.007930094376206398,-0.004244279582053423,-0.0181177519261837,0.083892822265625,-0.9901123046875,-0.066131591796875
22.18,0.011595402844250202,-0.03419791907072067,-0.012744557112455368,0.0812835693359375,-0.9937896728515625,-0.0634765625
22.2,0.012050004675984383,-0.030959246680140495,-0.004623514134436846,0.0772857666015625,-0.990997314453125,-0.064239501953125
22.22,0.006441121455281973,-0.001326786819845438,0.0038272286765277386,0.0747528076171875,-0.9910888671875,-0.0663909912109375
22.24,-0.01164573710411787,0.022846460342407227,0.015784023329615593,0.07965087890625,-0.993927001953125,-0.0643157958984375
22.26,-0.012679575942456722,0.049370743334293365,0.014842063188552856,0.0813751220703125,-0.9909820556640625,-0.0583343505859375
22.28,-0.0037673076149076223,0.05283418670296669,0.005183043889701366,0.0859832763671875,-0.9921875,-0.0683135986328125
22.3,-0.004815794061869383,0.018504975363612175,-0.0073255570605397224,0.0821075439453125,-0.9925689697265625,-0.0638427734375
22.32,0.003296727081760764,-0.009031045250594616,-0.0065319351851940155,0.0771942138671875,-0.98992919921875,-0.0619354248046875
22.34,0.006926349364221096,-0.02977653779089451,-0.0014572817599400878,0.0788726806640625,-0.9907989501953125,-0.067779541015625
22.36,0.005108475685119629,-0.02461586333811283,0.012652678415179253,0.0782012939453125,-0.9948272705078125,-0.0642242431640625
22.38,-0.009638246148824692,-0.0011472897604107857,0.015565111301839352,0.0793609619140625,-0.9923553466796875,-0.06304931640625
22.4,-0.021852834150195122,0.016287360340356827,0.008570585399866104,0.085296630859375,-0.9927520751953125,-0.0600433349609375
22.42,-0.015087340027093887,0.018670357763767242,-0.00321949552744627,0.0865936279296875,-0.99298095703125,-0.05780029296875
22.44,-0.006868026219308376,-0.004413124173879623,-0.016204535961151123,0.0876922607421875,-0.991180419921875,-0.0625152587890625
22.46,0.007492537144571543,-0.027750138193368912,-0.019533487036824226,0.0888214111328125,-0.9900054931640625,-0.0614013671875
22.48,0.019298596307635307,-0.024837706238031387,-0.02359906956553459,0.0896759033203125,-0.988311767578125,-0.0589141845703125
22.5,0.01804371550679207,0.0015667376574128866,-0.021398499608039856,0.0869293212890625,-0.9947509765625,-0.063079833984375
22.52,0.016710802912712097,0.03730103373527527,-0.024500548839569092,0.0862274169921875,-0.9904937744140625,-0.06060791015625
22.54,0.013549896888434887,0.05060591921210289,-0.010174074210226536,0.0787353515625,-0.9929962158203125,-0.0640411376953125
22.56,0.006042446009814739,0.04458371177315712,-0.0021640846971422434,0.0725250244140625,-0.9925079345703125,-0.0647430419921875
22.58,0.0023523701820522547,0.026198314502835274,0.011858790181577206,0.0687255859375,-0.9923858642578125,-0.0667266845703125
22.6,-0.005870938766747713,0.004507400095462799,0.02208506129682064,0.0727691650390625,-0.991973876953125,-0.068939208984375
22.62,-0.01823466457426548,-0.005272526293992996,0.029755765572190285,0.076751708984375,-0.992767333984375,-0.06561279296875
22.64,-0.014606639742851257,0.021318871527910233,0.029045766219496727,0.086181640625,-0.99176025390625,-0.063507080078125
22.66,-0.017431188374757767,0.034395791590213776,0.015331552363932133,0.09173583984375,-0.989410400390625,-0.06634521484375
22.68,-0.021935125812888145,0.02748808264732361,-0.011960255913436413,0.093475341796875,-0.9907073974609375,-0.0583648681640625
22.7,-0.007464574184268713,0.011175422929227352,-0.031729698181152344,0.09173583984375,-0.990478515625,-0.0598602294921875
22.72,0.003296727081760764,-0.02407550811767578,-0.038730084896087646,0.0865478515625,-0.9905853271484375,-0.062103271484375
22.74,0.002027997048571706,-0.051526039838790894,-0.025533854961395264,0.0795135498046875,-0.992584228515625,-0.0606536865234375
22.76,0.012715262360870838,-0.030184000730514526,-0.008213987573981285,0.0826416015625,-0.991424560546875,-0.061004638671875
22.78,-0.0019172097090631723,0.006660033017396927,0.0043505397625267506,0.079681396484375,-0.99609375,-0.0648040771484375
22.8,-0.014070278964936733,0.05245894566178322,0.007349791936576366,0.0800933837890625,-0.9913482666015625,-0.0543212890625
22.82,0.001113201375119388,0.08536522835493088,0.005138569511473179,0.0818634033203125,-0.98992919921875,-0.06170654296875
22.84,0.0048799761570990086,0.05435165390372276,0.0041396175511181355,0.081329345703125,-0.99078369140625,-0.06658935546875
22.86,0.0096259955316782,0.012399678118526936,-0.0020418455824255943,0.079833984375,-0.9925079345703125,-0.0618743896484375
22.88,0.009404687210917473,-0.024119451642036438,0.005782788153737783,0.0780181884765625,-0.9916229248046875,-0.06964111328125
22.9,0.0018610169645398855,-0.03881743550300598,0.008760201744735241,0.0787811279296875,-0.992462158203125,-0.0642242431640625
22.92,-0.0008847020799294114,-0.017785388976335526,0.014900652691721916,0.0808868408203125,-0.991943359375,-0.064483642578125
22.94,-0.009416937828063965,0.019567308947443962,0.007745271548628807,0.0870819091796875,-0.992645263671875,-0.0671234130859375
22.96,-0.023312779143452644,0.023443806916475296,-0.0013054815353825688,0.0899810791015625,-0.9907073974609375,-0.0623779296875
22.98,-0.020708473399281502,0.0005470133037306368,-0.007790811359882355,0.086273193359375,-0.992401123046875,-0.063568115234375
23,-0.0072866748087108135,-0.02773096412420273,-0.014792794361710548,0.0872344970703125,-0.9912872314453125,-0.0623779296875
23.02,-0.0011049455497413874,-0.054553255438804626,-0.01239328645169735,0.0832061767578125,-0.99151611328125,-0.0677490234375
23.04,-0.0016085492679849267,-0.03556811437010765,-0.0028061727061867714,0.08544921875,-0.9896087646484375,-0.063201904296875
23.06,0.002029062481597066,0.009346364066004753,-0.002311357529833913,0.0865020751953125,-0.990814208984375,-0.064727783203125
23.08,-0.012310728430747986,0.023030484095215797,-0.0018615495646372437,0.083892822265625,-0.99346923828125,-0.06500244140625
23.1,-0.006819556467235088,0.027641480788588524,-0.0004900216590613127,0.0846710205078125,-0.993743896484375,-0.0614471435546875
23.12,-0.002498843939974904,0.004069842863827944,0.006271744146943092,0.0809173583984375,-0.9899444580078125,-0.0697784423828125
23.14,0.003409645054489374,-0.011778628453612328,0.008431834168732166,0.083770751953125,-0.9900054931640625,-0.0654144287109375
23.16,0.008013984188437462,-0.011240137740969658,0.01101723127067089,0.0827484130859375,-0.9915924072265625,-0.070159912109375
23.18,-0.008745288476347923,-0.010273942723870277,0.011917912401258945,0.085540771484375,-0.990814208984375,-0.0659332275390625
23.2,-0.007185474969446659,0.011447331868112087,0.009563944302499294,0.0852813720703125,-0.990570068359375,-0.064697265625
23.22,-0.00848403200507164,0.019059712067246437,0.0006908240029588342,0.090423583984375,-0.99078369140625,-0.06884765625
23.24,-0.010145045816898346,0.011318966746330261,0.003239735495299101,0.086700439453125,-0.9873809814453125,-0.06597900390625
23.26,-0.009149289689958096,-0.006105563137680292,0.0015784555580466986,0.088043212890625,-0.9924774169921875,-0.0681610107421875
23.28,-0.008597482927143574,-0.018913770094513893,0.004619252867996693,0.0855865478515625,-0.991943359375,-0.0656890869140625
23.3,-0.00911466870456934,-0.024323182180523872,0.0020479708909988403,0.0844268798828125,-0.9914093017578125,-0.068878173828125
23.32,-0.013064136728644371,-0.02070128358900547,0.0022301310673356056,0.0859527587890625,-0.9895782470703125,-0.0637359619140625
23.34,-0.011854794807732105,-0.01167263463139534,0.0036282907240092754,0.087249755859375,-0.994354248046875,-0.0658416748046875
23.36,-0.0030605047941207886,0.005321261938661337,0.0036903421860188246,0.0875244140625,-0.989990234375,-0.0671234130859375
23.38,-0.0054730623960494995,0.010889665223658085,0.010178068652749062,0.0867767333984375,-0.99072265625,-0.067779541015625
23.4,-0.0074030552059412,0.026509637013077736,0.012171978130936623,0.0876007080078125,-0.98883056640625,-0.0640106201171875
23.42,-0.011233213357627392,0.023327426984906197,0.01435310672968626,0.084625244140625,-0.9889373779296875,-0.0662384033203125
23.44,-0.011273426935076714,0.02419481799006462,0.019224826246500015,0.0850982666015625,-0.99078369140625,-0.0668792724609375
23.46,-0.011184210889041424,0.022058963775634766,0.02184591069817543,0.08197021484375,-0.9926910400390625,-0.0703277587890625
23.48,-0.01495524775236845,0.02203099988400936,0.020118851214647293,0.0856781005859375,-0.99267578125,-0.0667266845703125
23.5,-0.019530292600393295,0.024285100400447845,0.009755691513419151,0.0856475830078125,-0.9910125732421875,-0.06878662109375
23.52,-0.024407604709267616,0.01056396123021841,0.009461944922804832,0.0841827392578125,-0.9906463623046875,-0.0680999755859375
23.54,-0.004436293616890907,0.019522568210959435,0.008400941267609596,0.086700439453125,-0.9910125732421875,-0.06744384765625
23.56,-0.010006560944020748,0.0040946099907159805,0.0041457428596913815,0.0839080810546875,-0.991729736328125,-0.0734710693359375
23.58,-0.019156916067004204,-0.00347435986623168,0.01073839794844389,0.0806427001953125,-0.9902496337890625,-0.0638580322265625
23.6,-0.008233695290982723,0.020320983603596687,0.011900601908564568,0.0833282470703125,-0.9951934814453125,-0.0682830810546875
23.62,-0.001642637769691646,0.030787473544478416,0.00711862975731492,0.08489990234375,-0.993133544921875,-0.0709686279296875
23.64,-0.007722367998212576,0.02678660675883293,0.00421232171356678,0.0809173583984375,-0.98980712890625,-0.0660247802734375
23.66,-0.004472779110074043,0.029813556000590324,0.005338306538760662,0.0821990966796875,-0.991943359375,-0.0685882568359375
23.68,0.0013840447645634413,0.015007179230451584,0.01073866430670023,0.0806884765625,-0.99212646484375,-0.074615478515625
23.7,-0.0015962987672537565,0.009386844001710415,0.008534366264939308,0.079376220703125,-0.9914703369140625,-0.0716705322265625
23.72,-0.005048554390668869,0.012659602798521519,0.008700015023350716,0.0792083740234375,-0.991668701171875,-0.0711822509765625
23.74,-0.010459830984473228,0.013727796263992786,0.0076270271092653275,0.080291748046875,-0.9921417236328125,-0.0704193115234375
23.76,-0.00698014535009861,0.016231967136263847,0.004162520635873079,0.08038330078125,-0.9930267333984375,-0.0696258544921875
23.78,0.001398425898514688,0.01642717607319355,0.00013848437811248004,0.079559326171875,-0.9920501708984375,-0.0731964111328125
23.8,0.003774764481931925,0.005103149451315403,-0.000336090917699039,0.0781707763671875,-0.98992919921875,-0.071533203125
23.82,0.005323925521224737,0.006147907115519047,0.0033859428949654102,0.07806396484375,-0.9919586181640625,-0.070281982421875
23.84,-0.0041547976434230804,-0.00021065604232717305,0.003736414946615696,0.0740509033203125,-0.991790771484375,-0.074249267578125
23.86,-0.008145278319716454,0.009272860363125801,0.008235027082264423,0.0745391845703125,-0.99053955078125,-0.0679779052734375
23.88,-0.0018748653819784522,0.02437378279864788,0.011284612119197845,0.07562255859375,-0.991790771484375,-0.074066162109375
23.9,-0.011574097909033298,0.00290417717769742,0.008028898388147354,0.0765533447265625,-0.9934234619140625,-0.075531005859375
23.92,-0.011517106555402279,-0.014814898371696472,0.010933607816696167,0.0762786865234375,-0.9925994873046875,-0.06707763671875
23.94,-0.007751396391540766,-0.021156417205929756,0.00703926756978035,0.079010009765625,-0.994110107421875,-0.0731964111328125
23.96,-0.003997937310487032,-0.018574750050902367,0.007327687460929155,0.0800933837890625,-0.9916534423828125,-0.0706787109375
23.98,-0.0028778119012713432,-0.007399326656013727,0.001651426195167005,0.0845489501953125,-0.9915313720703125,-0.0693359375
24,-0.004486361052840948,0.0012665993999689817,-0.005161472596228123,0.0802154541015625,-0.992431640625,-0.06988525390625
24.02,0.0033832797780632973,0.0034133736044168472,0.002139583695679903,0.07757568359375,-0.991851806640625,-0.0699615478515625
24.04,0.0049217878840863705,-0.0064957160502672195,0.007436344865709543,0.076873779296875,-0.990997314453125,-0.07110595703125
24.06,0.000107858024421148,-0.0037001960445195436,0.009000951424241066,0.0756378173828125,-0.993804931640625,-0.0713653564453125
24.08,0.0001203748834086582,0.009865946136415005,0.011630024760961533,0.07855224609375,-0.9923095703125,-0.06903076171875
24.1,0.002310824813321233,0.026163427159190178,0.006840062793344259,0.0811920166015625,-0.989044189453125,-0.072357177734375
24.12,-0.004520183429121971,0.01017007976770401,0.003641073824837804,0.0794677734375,-0.9925079345703125,-0.074920654296875
24.14,-0.0019861855544149876,-0.0038722362369298935,0.00007376955909421667,0.081939697265625,-0.99078369140625,-0.069305419921875
24.16,-0.00010253170330543071,-0.019948408007621765,0.0032754219137132168,0.0774688720703125,-0.993560791015625,-0.0742645263671875
24.18,-0.005387574899941683,-0.02552054077386856,0.0013323795283213258,0.0791778564453125,-0.9911956787109375,-0.0711517333984375
24.2,0.0012239888310432434,-0.009897904470562935,-0.0017427726415917277,0.0793304443359375,-0.9906463623046875,-0.0695953369140625
24.22,0.004378503188490868,0.0035563854034990072,0.0005494101205840707,0.079742431640625,-0.9904022216796875,-0.0727081298828125
24.24,-0.00017124126316048205,0.007778294384479523,0.004196343012154102,0.0773773193359375,-0.9884185791015625,-0.0720977783203125
24.26,-0.003019491909071803,0.011993279680609703,0.010689129121601582,0.0757293701171875,-0.99114990234375,-0.0731353759765625
24.28,-0.0052261874079704285,0.014065751805901527,0.018627746030688286,0.074798583984375,-0.9938201904296875,-0.071868896484375
24.3,-0.0022056300658732653,0.020482372492551804,0.014719291590154171,0.076995849609375,-0.9919281005859375,-0.0730743408203125
24.32,-0.00854342058300972,0.011741877533495426,0.012193815782666206,0.0782318115234375,-0.99163818359375,-0.07305908203125
24.34,-0.009920807555317879,-0.005599828902631998,0.0010964233661070466,0.0775146484375,-0.992431640625,-0.0710906982421875
24.36,-0.0008277104352600873,-0.02232581190764904,-0.004257861990481615,0.079681396484375,-0.993621826171875,-0.070892333984375
24.38,0.007673099637031555,-0.02286323718726635,-0.003418433479964733,0.076995849609375,-0.9909515380859375,-0.0703125
24.4,0.007631820626556873,-0.009169530123472214,0.001287904684431851,0.0792694091796875,-0.99273681640625,-0.073974609375
24.42,0.005613677203655243,0.01552383229136467,0.000261788722127676,0.078399658203125,-0.9901123046875,-0.0717620849609375
24.44,-0.00047830372932367027,0.025670742616057396,-0.0000066579027588886674,0.0780181884765625,-0.9925079345703125,-0.0716552734375
24.46,0.0006881608278490603,0.022830747067928314,0.002906573936343193,0.0740509033203125,-0.992919921875,-0.0711212158203125
24.48,0.008305600844323635,0.009592173621058464,0.011787683703005314,0.074737548828125,-0.991180419921875,-0.076446533203125
24.5,-0.0014439659425988793,-0.006758570205420256,0.009005479514598846,0.0748443603515625,-0.991607666015625,-0.073089599609375
24.52,-0.004435760900378227,-0.0020964404102414846,0.001332912128418684,0.07476806640625,-0.9891357421875,-0.0709991455078125
24.54,-0.0003810983616858721,0.001680454588495195,0.004421113524585962,0.0762939453125,-0.98944091796875,-0.072357177734375
24.56,0.005824865773320198,0.000844754686113447,0.002210956299677491,0.07806396484375,-0.9927215576171875,-0.075714111328125
24.58,-0.010070211254060268,-0.017617609351873398,0.0010021475609391928,0.076904296875,-0.99090576171875,-0.0724334716796875
24.6,-0.010580739006400108,-0.015326757915318012,0.005091697443276644,0.07720947265625,-0.991119384765625,-0.0674896240234375
24.62,-0.004821919370442629,-0.005310076754540205,0.01050537172704935,0.078948974609375,-0.9928436279296875,-0.07171630859375
24.64,0.0033545177429914474,0.011240137740969658,0.0008066715090535581,0.0807037353515625,-0.992584228515625,-0.07281494140625
24.66,-0.007426224648952484,0.007127684075385332,-0.0008101335843093693,0.0774688720703125,-0.9912261962890625,-0.0699462890625
24.68,-0.0024764735717326403,0.013608486391603947,-0.0041670482605695724,0.08074951171875,-0.9918060302734375,-0.0643310546875
24.7,0.00845473725348711,0.007843541912734509,-0.005949768237769604,0.078765869140625,-0.991363525390625,-0.0726165771484375
24.72,0.007163903210312128,-0.0006825681775808334,-0.003881823504343629,0.0766448974609375,-0.9922943115234375,-0.0716094970703125
24.74,0.006088785361498594,0.004599279258400202,0.004747084807604551,0.07415771484375,-0.991058349609375,-0.0703125
24.76,-0.0019406455103307962,0.021446969360113144,0.007676029112190008,0.075897216796875,-0.9917755126953125,-0.0710601806640625
24.78,-0.004532167688012123,0.03618650138378143,0.0027595674619078636,0.075927734375,-0.9914093017578125,-0.0698089599609375
24.8,-0.005745503585785627,0.025057150050997734,0.004693288821727037,0.075958251953125,-0.9907989501953125,-0.0715484619140625
24.82,0.004357197787612677,0.014260961674153805,0.0038807583041489124,0.0751190185546875,-0.993438720703125,-0.0723876953125
24.84,0.005595833994448185,0.001714010490104556,-0.0027385284192860126,0.0747222900390625,-0.9917755126953125,-0.0735015869140625
24.86,0.004676776938140392,-0.004492220003157854,-0.0033539850264787674,0.0753021240234375,-0.99114990234375,-0.0719757080078125
24.88,0.01061908807605505,0.01696912944316864,-0.0016354472609236836,0.076904296875,-0.992401123046875,-0.0730743408203125
24.9,0.001422128058038652,0.01948395185172558,0.0034519892651587725,0.07513427734375,-0.991424560546875,-0.0756683349609375
24.92,-0.008623049594461918,0.0024833977222442627,-0.0036719664931297302,0.076263427734375,-0.9917449951171875,-0.06927490234375
24.94,-0.00005805691034765914,-0.0018274611793458462,-0.0036999296862632036,0.075225830078125,-0.993743896484375,-0.0697784423828125
24.96,0.009107744321227074,-0.008225172758102417,0.0007137271459214389,0.0755462646484375,-0.99102783203125,-0.075775146484375
24.98,0.008103466592729092,-0.0016495619202032685,-0.005810218397527933,0.076446533203125,-0.99066162109375,-0.07373046875
25,-0.004877046681940556,-0.01255041267722845,-0.005550294183194637,0.0748443603515625,-0.9953460693359375,-0.0706939697265625
25.02,0.0010743191232904792,-0.003919906914234161,-0.00640916358679533,0.0744171142578125,-0.989959716796875,-0.0660552978515625
25.04,0.0043894220143556595,-0.000687361869495362,0.0030692932195961475,0.075042724609375,-0.9911956787109375,-0.0757293701171875
25.06,0.004861867055296898,0.008949019946157932,-0.0002849582233466208,0.0802001953125,-0.9902801513671875,-0.06927490234375
25.08,-0.0004799016169272363,0.019576365128159523,-0.0004844290087930858,0.079071044921875,-0.9897003173828125,-0.0698699951171875
25.1,0.002226136391982436,0.025827601552009583,-0.0015422365395352244,0.07733154296875,-0.9898223876953125,-0.06817626953125
25.12,0.008808138780295849,0.02847318723797798,-0.0012330436147749424,0.0775299072265625,-0.990936279296875,-0.0721435546875
25.14,0.0025545042008161545,0.00401711231097579,0.0027385284192860126,0.073211669921875,-0.99212646484375,-0.0742950439453125
25.16,0.00013156015484128147,0.0016990967560559511,0.002370745874941349,0.0743408203125,-0.9919891357421875,-0.0700836181640625
25.18,-0.003050118451938033,-0.003454386256635189,-0.001579787116497755,0.0771484375,-0.992218017578125,-0.073333740234375
25.2,-0.005711148958653212,-0.014032728038728237,-0.0054184673354029655,0.07623291015625,-0.994232177734375,-0.068817138671875
25.22,-0.002086054068058729,-0.011659319512546062,-0.002377137541770935,0.0792694091796875,-0.9911956787109375,-0.0685882568359375
25.24,0.005280515644699335,0.0020266654901206493,-0.005103948060423136,0.0821533203125,-0.989349365234375,-0.0702972412109375
25.26,0.009374060668051243,0.012779444456100464,-0.011392736807465553,0.0804901123046875,-0.990814208984375,-0.070953369140625
25.28,0.0030208237003535032,0.01763199083507061,-0.009661149233579636,0.0825653076171875,-0.9910888671875,-0.069580078125
25.3,0.0041465419344604015,0.025655828416347504,-0.00818043202161789,0.07794189453125,-0.9922027587890625,-0.069091796875
25.32,0.010175938718020916,0.01587776653468609,-0.009841179475188255,0.076690673828125,-0.9932403564453125,-0.070770263671875
25.34,0.012731773778796196,0.007099987473338842,-0.0028783443849533796,0.0739898681640625,-0.9898223876953125,-0.0725555419921875
25.36,-0.001312405802309513,0.0016626114957034588,0.0031310785561800003,0.0731353759765625,-0.992156982421875,-0.0736083984375
25.38,0.0023971113841980696,0.015359248965978622,0.00683180708438158,0.074676513671875,-0.9930267333984375,-0.070526123046875
25.4,0.0007507451227866113,0.018006697297096252,0.0008948221220634878,0.07757568359375,-0.991943359375,-0.0755157470703125
25.42,-0.002910302486270666,0.0038980687968432903,0.0006303702248260379,0.0762481689453125,-0.99151611328125,-0.071258544921875
25.44,-0.0016623451374471188,0.0010221211705356836,-0.0027049726340919733,0.0809478759765625,-0.99072265625,-0.0687255859375
25.46,0.006924751214683056,0.0013648699969053268,-0.006405701395124197,0.081298828125,-0.9903717041015625,-0.0717926025390625
25.48,0.0041223070584237576,-0.004649613052606583,-0.003756654914468527,0.0802764892578125,-0.9889678955078125,-0.0713958740234375
25.5,0.00037763622822239995,-0.001133174984715879,-0.001936384360305965,0.080413818359375,-0.9916229248046875,-0.0707244873046875
25.52,-0.005034972447901964,0.006119944155216217,-0.00315984059125185,0.080596923828125,-0.99371337890625,-0.06829833984375
25.54,-0.000150202278746292,0.014659903012216091,-0.009705624543130398,0.0807342529296875,-0.9932861328125,-0.0680694580078125
25.56,0.0014937670202925801,0.009837716817855835,-0.014072941616177559,0.0797576904296875,-0.9914093017578125,-0.07012939453125
25.58,0.00971814151853323,0.00481259822845459,-0.01486336812376976,0.076995849609375,-0.990234375,-0.068817138671875
25.6,0.013145629316568375,-0.005859486758708954,-0.007211840245872736,0.077850341796875,-0.9905242919921875,-0.071044921875
25.62,0.014594655483961105,-0.0028309402987360954,-0.0009382316493429244,0.074005126953125,-0.99102783203125,-0.070343017578125
25.64,0.005517537239938974,0.014738732017576694,0.002423742786049843,0.077117919921875,-0.9906463623046875,-0.0704498291015625
25.66,-0.004899151157587767,0.022534603253006935,0.006816893350332975,0.0774688720703125,-0.991180419921875,-0.06787109375
25.68,-0.0002492718631401658,0.024082966148853302,0.0006399576086550951,0.080474853515625,-0.9905548095703125,-0.0682373046875
25.7,0.002228533150628209,0.009493104182183743,0.003695135936141014,0.0772857666015625,-0.9916229248046875,-0.07269287109375
25.72,0.010541590861976147,0.016327308490872383,-0.0010274475207552314,0.0804443359375,-0.9872283935546875,-0.0699310302734375
25.74,-0.0003376888344064355,-0.0006913566030561924,0.006159359123557806,0.077545166015625,-0.9949951171875,-0.0738372802734375
25.76,-0.01212537195533514,-0.009952765889465809,0.0025603631511330605,0.0809478759765625,-0.9933929443359375,-0.065216064453125
25.78,-0.00279046013019979,-0.004471980035305023,0.0012322446564212441,0.081085205078125,-0.9918212890625,-0.066314697265625
25.8,0.00333214714191854,-0.006184658966958523,-0.009893110953271389,0.085296630859375,-0.991668701171875,-0.071685791015625
25.82,0.0072986590676009655,-0.008493886329233646,-0.018137725070118904,0.0818328857421875,-0.992218017578125,-0.0654144287109375
25.84,0.016572585329413414,-0.00845633540302515,-0.016590960323810577,0.0814666748046875,-0.9914703369140625,-0.068389892578125
25.86,0.012749350629746914,-0.009048089385032654,-0.008102933876216412,0.0826873779296875,-0.9922637939453125,-0.06732177734375
25.88,0.010419617407023907,0.002055960241705179,-0.005382248666137457,0.0796051025390625,-0.9925384521484375,-0.066558837890625
25.9,0.007631554268300533,0.017600299790501595,-0.004922853317111731,0.081207275390625,-0.9926605224609375,-0.06744384765625
25.92,0.004025368019938469,0.02161315083503723,0.0013576794881373644,0.07769775390625,-0.9929962158203125,-0.0699310302734375
25.94,0.006277070846408606,0.009432383812963963,-0.004298874642699957,0.0803070068359375,-0.99212646484375,-0.0674285888671875
25.96,0.0030157635919749737,-0.00836525484919548,-0.004662395920604467,0.080841064453125,-0.99127197265625,-0.068115234375
25.98,0.014480139128863811,0.0005749764968641102,-0.007156446576118469,0.0851287841796875,-0.991302490234375,-0.06671142578125
26,0.014928882010281086,0.01134160440415144,-0.002755040070042014,0.0836944580078125,-0.9897613525390625,-0.0719146728515625
26.02,-0.003254915354773402,0.005209675524383783,-0.008747951127588749,0.086181640625,-0.992095947265625,-0.067230224609375
26.04,0.0004673847579397261,0.01612064614892006,-0.007382282521575689,0.0807037353515625,-0.993804931640625,-0.062225341796875
26.06,0.005455751903355122,0.008522914722561836,-0.008787632919847965,0.0821380615234375,-0.990509033203125,-0.0709228515625
26.08,0.009150621481239796,-0.008228901773691177,-0.0067934575490653515,0.0804443359375,-0.9914398193359375,-0.0689239501953125
26.1,0.0031161648221313953,-0.008931443095207214,-0.0037318875547498465,0.08233642578125,-0.9914398193359375,-0.0680389404296875
26.12,0.011953598819673061,0.009015332907438278,-0.004391552414745092,0.0832977294921875,-0.993133544921875,-0.067169189453125
26.14,0.0006085322820581496,0.011570902541279793,-0.0078584561124444,0.083343505859375,-0.9908599853515625,-0.0718994140625
26.16,-0.0031305458396673203,0.00806058943271637,-0.004312456585466862,0.0830230712890625,-0.99468994140625,-0.0619659423828125
26.18,0.0065348646603524685,0.002802710747346282,-0.003709516953676939,0.0806121826171875,-0.989776611328125,-0.067962646484375
26.2,0.004778776317834854,-0.016388559713959694,-0.007978564128279686,0.0838470458984375,-0.9922943115234375,-0.0650177001953125
26.22,0.012400210835039616,-0.012533634901046753,-0.004993693437427282,0.0806121826171875,-0.992584228515625,-0.064971923828125
26.24,0.014583736658096313,0.002237321576103568,0.0008183894096873701,0.08013916015625,-0.9885101318359375,-0.067474365234375
26.26,0.004618453793227673,0.021041102707386017,0.0008594020619057119,0.0836334228515625,-0.9922943115234375,-0.0662078857421875
26.28,0.0004183826094958931,0.029272401705384254,0.004572381265461445,0.080657958984375,-0.9930419921875,-0.0661773681640625
26.3,0.0015667376574128866,0.020187027752399445,0.0031497206073254347,0.0843963623046875,-0.9906768798828125,-0.0664520263671875
26.32,0.008280566893517971,0.004163053352385759,-0.010844125412404537,0.082427978515625,-0.9906158447265625,-0.067596435546875
26.34,0.015455123037099838,-0.021585986018180847,-0.0057007623836398125,0.076751708984375,-0.9919281005859375,-0.069305419921875
26.36,0.012322179973125458,-0.03628929704427719,-0.0010381002211943269,0.080657958984375,-0.9916839599609375,-0.0693511962890625
26.38,-0.0021550299134105444,-0.032834380865097046,0.0035627768374979496,0.0786285400390625,-0.9933624267578125,-0.0656585693359375
26.4,0.0008761800127103925,0.0026354643050581217,0.006708236411213875,0.0808868408203125,-0.9898834228515625,-0.0637359619140625
26.42,0.00014860439114272594,0.014769624918699265,0.002133458387106657,0.0852508544921875,-0.9886016845703125,-0.0693206787109375
26.44,-0.011831092648208141,-0.006620085798203945,-0.0007464840309694409,0.081756591796875,-0.99310302734375,-0.06158447265625
26.46,0.0018887137994170189,-0.014356834813952446,-0.002712429501116276,0.0837249755859375,-0.9932098388671875,-0.058929443359375
26.48,0.012497415766119957,-0.03262585401535034,-0.001273523666895926,0.08331298828125,-0.9910430908203125,-0.0676727294921875
26.5,0.016325177624821663,-0.039680834859609604,-0.010821222327649593,0.0841064453125,-0.98968505859375,-0.0628662109375
26.52,0.014482269994914532,-0.03191505745053291,-0.006876281928271055,0.0824737548828125,-0.9936676025390625,-0.0628814697265625
26.54,0.020739100873470306,-0.0012112056137993932,0.0026993800420314074,0.08416748046875,-0.989990234375,-0.0635986328125
26.56,0.013097692281007767,0.007692806888371706,-0.0014767227694392204,0.083251953125,-0.990936279296875,-0.0663299560546875
26.58,-0.003382214577868581,0.0003230414295103401,0.010063020512461662,0.0788726806640625,-0.9920196533203125,-0.061614990234375
26.6,-0.002426672261208296,-0.004988100845366716,0.013819674961268902,0.08050537109375,-0.990509033203125,-0.062957763671875
26.62,0.002380599733442068,-0.008433965034782887,0.01242391299456358,0.0848541259765625,-0.992462158203125,-0.0660552978515625
26.64,-0.00015419702685903758,-0.02165469527244568,-0.0001675128296483308,0.085784912109375,-0.99090576171875,-0.0647430419921875
26.66,0.0026442527305334806,-0.03185193985700607,-0.008166849613189697,0.0877532958984375,-0.9912567138671875,-0.0614776611328125
26.68,0.001996039180085063,-0.028143487870693207,-0.0156513974070549,0.08843994140625,-0.99298095703125,-0.0616455078125
26.7,0.015211709775030613,-0.017193900421261787,-0.01540265791118145,0.086761474609375,-0.990509033203125,-0.062408447265625
26.72,0.01383858360350132,-0.012988769449293613,-0.008738097734749317,0.08447265625,-0.9895782470703125,-0.06475830078125
26.74,0.005397961009293795,-0.011743208393454552,-0.0036858150269836187,0.0826568603515625,-0.9930877685546875,-0.06048583984375
26.76,0.008099472150206566,-0.002627474721521139,0.0009092031978070736,0.0813140869140625,-0.9929351806640625,-0.0629425048828125
26.78,0.007001183927059174,0.004824316129088402,0.013066799379885197,0.0774383544921875,-0.990814208984375,-0.0652618408203125
26.8,-0.001377386855892837,0.00015180018090177327,0.016518788412213326,0.0832366943359375,-0.9907684326171875,-0.063751220703125
26.82,-0.00035127095179632306,0.0033992587123066187,0.015323029831051826,0.0849609375,-0.9927520751953125,-0.0629425048828125
26.84,-0.003970507066696882,-0.002528138691559434,0.00939030572772026,0.085693359375,-0.9927825927734375,-0.064971923828125
26.86,-0.004255997482687235,-0.005242166109383106,0.003103115363046527,0.087738037109375,-0.99163818359375,-0.0610504150390625
26.88,0.0013257216196507215,-0.0062421830371022224,-0.009651295840740204,0.0899810791015625,-0.99090576171875,-0.06329345703125
26.9,-0.004324174486100674,-0.025243038311600685,-0.010040117427706718,0.087371826171875,-0.989837646484375,-0.063079833984375
26.92,0.008282430469989777,-0.013966682367026806,-0.012588762678205967,0.088134765625,-0.9929046630859375,-0.058746337890625
26.94,0.009275790303945541,-0.0028453213162720203,-0.011052651330828667,0.08270263671875,-0.99005126953125,-0.066864013671875
26.96,0.002802178030833602,0.004630970768630505,0.0005691175465472043,0.079254150390625,-0.98980712890625,-0.060546875
26.98,0.004346545320004225,0.025709889829158783,0.004728442523628473,0.0827178955078125,-0.9926605224609375,-0.0623626708984375
27,0.0052046156488358974,0.024454742670059204,0.009529323317110538,0.07745361328125,-0.9935760498046875,-0.0650634765625
27.02,0.006850449368357658,0.01239035651087761,0.016230102628469467,0.078857421875,-0.9904327392578125,-0.06207275390625
27.04,0.0056925066746771336,0.01398692186921835,0.016569389030337334,0.0825042724609375,-0.9898529052734375,-0.066070556640625
27.06,0.008036887273192406,0.02015640027821064,0.008964466862380505,0.0836639404296875,-0.9897003173828125,-0.067413330078125
27.08,0.008266451768577099,0.025247566401958466,0.012926450930535793,0.0839691162109375,-0.9897918701171875,-0.0653533935546875
27.1,0.0016282566357403994,0.016694026067852974,0.006243514828383923,0.0869598388671875,-0.9904022216796875,-0.0668487548828125
27.12,-0.0038477350026369095,0.012049471959471703,0.009082178585231304,0.0810089111328125,-0.994964599609375,-0.06427001953125
27.14,0.00589597225189209,0.01119033619761467,0.009139702655375004,0.0812835693359375,-0.9895172119140625,-0.067657470703125
27.16,-0.0006109291571192443,-0.0022887205705046654,0.010901116766035557,0.08148193359375,-0.989776611328125,-0.0688323974609375
27.18,-0.012879579328000546,-0.007640609052032232,0.010151970200240612,0.07940673828125,-0.9941253662109375,-0.06280517578125
27.2,-0.0024913870729506016,0.012509400025010109,0.01417307648807764,0.08251953125,-0.991363525390625,-0.06329345703125
27.22,0.004020840395241976,0.02599005587399006,0.0073053170926868916,0.08026123046875,-0.99261474609375,-0.0688323974609375
27.24,0.0020029633305966854,0.04005394130945206,-0.005381715949624777,0.0823974609375,-0.995086669921875,-0.0615234375
27.26,0.01170166302472353,0.05163896083831787,-0.017717745155096054,0.0807647705078125,-0.995697021484375,-0.061279296875
27.28,0.02321823686361313,0.04645564779639244,-0.03632951155304909,0.07794189453125,-0.9979400634765625,-0.0641021728515625
27.3,0.042515236884355545,0.040770333260297775,-0.042098984122276306,0.0732879638671875,-1.0005035400390625,-0.0623016357421875
27.32,0.0824754387140274,0.07134582102298737,-0.04747457429766655,0.07220458984375,-1.0006103515625,-0.0712890625
27.34,0.10485317558050156,0.11139816045761108,-0.05191965773701668,0.070953369140625,-0.9967041015625,-0.07891845703125
27.36,0.11084982007741928,0.14619103074073792,-0.04746738448739052,0.0662994384765625,-0.9917449951171875,-0.0752716064453125
27.38,0.12798751890659332,0.1769729107618332,-0.039927177131175995,0.0627593994140625,-0.9899139404296875,-0.0814666748046875
27.4,0.13439269363880157,0.1709861308336258,-0.03045324608683586,0.0554046630859375,-0.989654541015625,-0.090057373046875
27.42,0.12563328444957733,0.13590483367443085,-0.02647128887474537,0.046661376953125,-0.9925079345703125,-0.0908355712890625
27.44,0.1197756677865982,0.08493832498788834,-0.011784487403929234,0.0343475341796875,-0.986053466796875,-0.0901336669921875
27.46,0.12658803164958954,0.0337076298892498,0.00512791657820344,0.03173828125,-0.9877777099609375,-0.09619140625
27.48,0.1345788538455963,0.005781456362456083,0.024332236498594284,0.0287322998046875,-0.9959564208984375,-0.099517822265625
27.5,0.14194941520690918,0.008274707943201065,0.034518029540777206,0.0339202880859375,-1.0020294189453125,-0.1027679443359375
27.52,0.1394721418619156,0.02893524430692196,0.017303090542554855,0.0286407470703125,-0.9939727783203125,-0.101593017578125
27.54,0.13635677099227905,0.03882169723510742,-0.0024897893890738487,0.016693115234375,-0.97662353515625,-0.097686767578125
27.56,0.14014218747615814,0.009927998296916485,-0.015440741553902626,0.010650634765625,-0.9675140380859375,-0.099151611328125
27.58,0.14479020237922668,-0.040889907628297806,-0.03472655639052391,-0.000579833984375,-0.9853057861328125,-0.102569580078125
27.6,0.1460067331790924,-0.11297821998596191,-0.06804083287715912,-0.0151214599609375,-0.9933013916015625,-0.1025848388671875
27.62,0.13564331829547882,-0.21947988867759705,-0.06641604006290436,-0.0285491943359375,-0.99468994140625,-0.1032257080078125
27.64,0.11811838299036026,-0.342316597700119,-0.05011430010199547,-0.033599853515625,-0.9867706298828125,-0.0994110107421875
27.66,0.09135867655277252,-0.46211862564086914,-0.041309088468551636,-0.043243408203125,-0.985076904296875,-0.1007843017578125
27.68,0.06021513789892197,-0.5858493447303772,-0.036135099828243256,-0.0538482666015625,-0.980987548828125,-0.1010589599609375
27.7,0.011305385269224644,-0.6966651082038879,-0.005702094174921513,-0.0622711181640625,-0.980682373046875,-0.0984039306640625
27.72,-0.045641519129276276,-0.8005667328834534,0.05427895113825798,-0.0584564208984375,-0.983184814453125,-0.095733642578125
27.74,-0.11026126146316528,-0.8521888852119446,0.15165077149868011,-0.049835205078125,-0.9735870361328125,-0.09405517578125
27.76,-0.1976366490125656,-0.7812686562538147,0.27822044491767883,-0.0301666259765625,-0.956695556640625,-0.0895843505859375
27.78,-0.31587567925453186,-0.6381778120994568,0.4201626479625702,-0.00787353515625,-0.9409637451171875,-0.08465576171875
27.8,-0.42490893602371216,-0.44028788805007935,0.5792393684387207,0.015289306640625,-0.93597412109375,-0.0811767578125
27.82,-0.5529540181159973,-0.20067903399467468,0.6817578077316284,0.0358428955078125,-0.94915771484375,-0.0914459228515625
27.84,-0.8037065863609314,-0.20895667374134064,0.6851701140403748,0.0402679443359375,-0.9757537841796875,-0.090972900390625
27.86,-1.0630327463150024,-0.945329487323761,0.5456156730651855,0.0697174072265625,-0.999847412109375,-0.026153564453125
27.88,-0.16289997100830078,-3.270251989364624,-0.1647239625453949,0.1168975830078125,-0.999847412109375,0.05609130859375
27.9,0.31510308384895325,-2.7603113651275635,-0.36546480655670166,0.162353515625,-1.0010528564453125,-0.1265716552734375
27.92,0.015509450808167458,-1.626364827156067,-0.13132686913013458,0.315216064453125,-0.970367431640625,-0.17828369140625
27.94,-0.2600843012332916,-1.1268726587295532,-0.3673684298992157,0.437408447265625,-1.0931854248046875,0.0540924072265625
27.96,-0.05181526020169258,-0.38032442331314087,-0.4743310809135437,0.2404327392578125,-1.1570281982421875,0.1485595703125
27.98,-0.027718979865312576,0.5340210795402527,-0.20536114275455475,0.1839599609375,-1.0034637451171875,0.0038604736328125
28,-0.01679549179971218,0.9023348689079285,0.02159157767891884,0.1778106689453125,-0.9823150634765625,-0.0461883544921875
28.02,0.12311074882745743,0.5899847149848938,-0.07416770607233047,0.1570892333984375,-1.032379150390625,-0.1063079833984375
28.04,0.12266413122415543,0.024289892986416817,-0.3480445146560669,0.1289825439453125,-1.047332763671875,-0.126556396484375
28.06,-0.1837434619665146,-0.41728273034095764,-0.40180015563964844,0.0933074951171875,-1.037933349609375,-0.0500030517578125
28.08,-0.36198243498802185,-0.5651180148124695,-0.20796944200992584,0.162353515625,-1.0084991455078125,0.0264129638671875
28.1,-0.12360849231481552,-0.3871746063232422,-0.0870792418718338,0.2441558837890625,-0.9980010986328125,-0.0437164306640625
28.12,0.12401355803012848,0.03513827919960022,-0.10525185614824295,0.21630859375,-0.9976806640625,-0.1476898193359375
28.14,0.08514898270368576,0.18742235004901886,-0.11658227443695068,0.09967041015625,-0.929443359375,-0.09356689453125
28.16,-0.11136620491743088,0.03883608058094978,-0.047207459807395935,-0.0374908447265625,-0.916412353515625,0.0801239013671875
28.18,-0.05937224626541138,-0.07580235600471497,0.07698559761047363,-0.0452117919921875,-0.99896240234375,0.07470703125
28.2,0.045522209256887436,-0.020053869113326073,-0.07571154087781906,0.1008148193359375,-1.075439453125,-0.1232147216796875
28.22,-0.07190215587615967,-0.1424516886472702,-0.23960593342781067,0.130584716796875,-0.976348876953125,-0.15130615234375
28.24,-0.19187197089195251,-0.40086114406585693,-0.0936569795012474,0.140869140625,-0.8873291015625,-0.083465576171875
28.26,-0.13666677474975586,-0.3347952961921692,0.1727352887392044,0.1609039306640625,-0.913970947265625,-0.0621185302734375
28.28,0.013194631785154343,0.030969101935625076,0.14371483027935028,0.14508056640625,-1.0396881103515625,-0.1147308349609375
28.3,-0.024747157469391823,0.11815114319324493,0.03349777311086655,0.0686492919921875,-1.07769775390625,-0.067047119140625
28.32,-0.19735115766525269,0.10892648249864578,0.07202678918838501,0.0526580810546875,-0.980682373046875,0.0454559326171875
28.34,-0.26843997836112976,0.03803952783346176,0.1786576211452484,0.0806732177734375,-0.904510498046875,-0.0399017333984375
28.36,-0.17826613783836365,-0.03839745745062828,0.2053382396697998,0.1023712158203125,-0.920654296875,-0.1235198974609375
28.38,0.05645555257797241,0.02744973450899124,0.15047791600227356,0.15972900390625,-1.064788818359375,-0.18475341796875
28.4,0.06744349002838135,0.12209368497133255,0.10383744537830353,0.2205810546875,-1.1607666015625,-0.1638031005859375
28.42,-0.046659380197525024,0.3152620792388916,0.098664790391922,0.21533203125,-1.0642242431640625,0.0392608642578125
28.44,-0.2307027131319046,0.5675901770591736,0.22104503214359283,0.0678863525390625,-0.9740447998046875,-0.0020904541015625
28.46,-0.38215696811676025,0.489885538816452,0.21013006567955017,0.0084991455078125,-0.9173583984375,-0.14105224609375
28.48,-0.17651937901973724,-0.002380067016929388,-0.0001984054979402572,-0.046356201171875,-0.939544677734375,-0.21075439453125
28.5,0.08241923898458481,-0.2476377636194229,-0.02594318427145481,-0.03021240234375,-1.0207672119140625,-0.2625274658203125
28.52,0.04613873362541199,-0.13470003008842468,0.08293136954307556,0.107147216796875,-1.010040283203125,-0.237213134765625
28.54,-0.13850009441375732,0.012497948482632637,0.13944284617900848,0.101165771484375,-0.9550933837890625,-0.10748291015625
28.56,-0.19968727231025696,0.08166450262069702,0.20976680517196655,-0.009674072265625,-0.9456329345703125,-0.0464019775390625
28.58,-0.24762417376041412,0.1892157346010208,0.2579883933067322,-0.0652618408203125,-0.961822509765625,-0.1124420166015625
28.6,-0.1341218501329422,0.10693790018558502,0.231438547372818,-0.0689544677734375,-0.9700469970703125,-0.189361572265625
28.62,0.012974920682609081,0.030855383723974228,0.17440882325172424,-0.0260467529296875,-0.99859619140625,-0.23504638671875
28.64,-0.009313606657087803,0.06551722437143326,0.13513678312301636,0.065093994140625,-0.9822235107421875,-0.221038818359375
28.66,-0.09397496283054352,0.07096552103757858,0.10524679720401764,0.1334991455078125,-0.9730377197265625,-0.1675872802734375
28.68,-0.09326070547103882,0.08642943203449249,0.09358401596546173,0.1348419189453125,-0.986083984375,-0.1396331787109375
28.7,-0.056585248559713364,0.11579877138137817,0.07645376026630402,0.0702667236328125,-1.0066680908203125,-0.160552978515625
28.72,-0.06446101516485214,0.1039692759513855,0.039319708943367004,-0.010406494140625,-1.0083465576171875,-0.161468505859375
28.74,-0.09465993195772171,0.05528349429368973,0.03350096940994263,-0.0477447509765625,-1.0052337646484375,-0.1550445556640625
28.76,-0.07298499345779419,-0.010330934077501297,0.024277642369270325,-0.05157470703125,-0.9947662353515625,-0.16571044921875
28.78,-0.06795268505811691,-0.011269965209066868,-0.018683141097426414,-0.0371551513671875,-0.9825897216796875,-0.184295654296875
28.8,-0.009160741232335567,-0.04731079190969467,-0.04217088967561722,0.0225982666015625,-0.9819488525390625,-0.201202392578125
28.82,0.00791225116699934,-0.06885922700166702,-0.04452299326658249,0.048736572265625,-0.9977569580078125,-0.20306396484375
28.84,-0.018493257462978363,-0.07312800735235214,-0.017958227545022964,0.0179901123046875,-0.9915008544921875,-0.166900634765625
28.86,-0.021164141595363617,0.005796370096504688,-0.03178056702017784,-0.0050201416015625,-0.971771240234375,-0.1638031005859375
28.88,0.0015076154377311468,-0.04361964762210846,-0.060923006385564804,-0.0026397705078125,-0.9725341796875,-0.1991424560546875
28.9,0.021821675822138786,-0.15921787917613983,-0.06632229685783386,0.04644775390625,-0.974609375,-0.207855224609375
28.92,0.03099386766552925,-0.14693565666675568,-0.05824999138712883,0.0803985595703125,-0.989227294921875,-0.206787109375
28.94,0.053945522755384445,-0.07533017545938492,-0.06561123579740524,0.0596923828125,-0.993743896484375,-0.197357177734375
28.96,0.0515257753431797,-0.05337667092680931,-0.05582651495933533,0.0183258056640625,-0.99017333984375,-0.1753082275390625
28.98,0.0211257915943861,-0.03410204499959946,-0.017019197344779968,0.0012664794921875,-0.98638916015625,-0.127288818359375
29,0.01830150932073593,0.026855848729610443,0.026149844750761986,0.0024871826171875,-0.982330322265625,-0.121673583984375
