timestamp,gyro_x,gyro_y,gyro_z,acc_x,acc_y,acc_z
10,0.003858121344819665,-0.04074476659297943,-0.021519672125577927,0.195281982421875,0.9765625,0.083984375
10.02,0.0029409287963062525,-0.0666932761669159,-0.024169251322746277,0.199462890625,0.9703216552734375,0.083953857421875
10.04,0.007247793022543192,-0.06637343019247055,-0.01774597354233265,0.2097930908203125,0.9725799560546875,0.0842742919921875
10.06,0.010996990837156773,-0.051596347242593765,-0.009583651088178158,0.2173919677734375,0.9749298095703125,0.0838165283203125
10.08,0.021140439435839653,-0.021795576438307762,-0.0033475933596491814,0.2161712646484375,0.968109130859375,0.083038330078125
10.1,0.02900928072631359,0.017944378778338432,0.0037494644057005644,0.2173004150390625,0.9687042236328125,0.0831298828125
10.12,0.03086443804204464,0.03295741602778435,0.011037470772862434,0.2161102294921875,0.9727020263671875,0.0886077880859375
10.14,0.01398905273526907,0.03948242962360382,0.009792976081371307,0.215606689453125,0.9721527099609375,0.0907440185546875
10.16,-0.0016173376934602857,0.0284111350774765,0.014251373708248138,0.2147674560546875,0.96844482421875,0.0941925048828125
10.18,-0.009974869899451733,0.02768648788332939,0.01577363722026348,0.2159271240234375,0.9705810546875,0.092071533203125
10.2,-0.007670969236642122,0.04043397679924965,0.019720174372196198,0.2160797119140625,0.9729156494140625,0.0872955322265625
10.22,0.0013201289111748338,0.06024230271577835,0.019238941371440887,0.215057373046875,0.971954345703125,0.0824737548828125
10.24,0.014220214448869228,0.07652992755174637,0.019296465441584587,0.21295166015625,0.9714813232421875,0.078460693359375
10.26,0.02839861810207367,0.06627755612134933,0.007920773699879646,0.2098236083984375,0.970458984375,0.0766143798828125
10.28,0.033725738525390625,0.02311783656477928,0.001141963410191238,0.2104034423828125,0.970001220703125,0.0785369873046875
10.3,0.01973428949713707,-0.022064821794629097,-0.007101318798959255,0.213653564453125,0.9712066650390625,0.0832061767578125
10.32,-0.002796851797029376,-0.059844158589839935,-0.005879727192223072,0.216522216796875,0.96832275390625,0.08770751953125
10.34,-0.005085838492959738,-0.07823514938354492,-0.008364190347492695,0.21588134765625,0.966705322265625,0.0873260498046875
10.36,-0.010416688397526741,-0.046133141964673996,-0.008833971805870533,0.2155609130859375,0.9703216552734375,0.087371826171875
10.38,-0.007555654272437096,0.006887999828904867,-0.004884503781795502,0.210540771484375,0.971771240234375,0.08636474609375
10.4,-0.0014181332662701607,0.04162254557013512,-0.0018849853659048676,0.2104949951171875,0.9716796875,0.086944580078125
10.42,-0.0009590042755007744,0.05074440315365791,-0.00618306128308177,0.2126617431640625,0.969696044921875,0.0845794677734375
10.44,-0.008125570602715015,0.03687306120991707,-0.009600961580872536,0.2135772705078125,0.9671783447265625,0.0849761962890625
10.46,-0.015780560672283173,0.011412444524466991,-0.006376140285283327,0.2172698974609375,0.9678497314453125,0.0869140625
10.48,-0.020205669105052948,-0.010179400444030762,-0.010297378525137901,0.2163543701171875,0.968170166015625,0.084808349609375
10.5,-0.020122578367590904,-0.005640575196594,-0.016996560618281364,0.2131195068359375,0.97149658203125,0.0850830078125
10.52,-0.019331619143486023,-0.0057444386184215546,-0.019332418218255043,0.21197509765625,0.971588134765625,0.08355712890625
10.54,-0.01859978400170803,-0.008474711328744888,-0.01594754122197628,0.214202880859375,0.970855712890625,0.0834808349609375
10.56,-0.01363218855112791,-0.017906827852129936,-0.017283648252487183,0.2149658203125,0.970001220703125,0.08416748046875
10.58,-0.015259913168847561,-0.011361843906342983,-0.012130964547395706,0.21380615234375,0.9698944091796875,0.08319091796875
10.6,-0.015303055755794048,0.007931426167488098,-0.01315175462514162,0.212127685546875,0.97052001953125,0.0854339599609375
10.62,-0.019748138263821602,0.020187826827168465,-0.020172113552689552,0.209259033203125,0.9705047607421875,0.085296630859375
10.64,-0.02148478478193283,0.02773628942668438,-0.019364643841981888,0.2097930908203125,0.9713287353515625,0.0858612060546875
10.66,-0.021587584167718887,0.024213993921875954,-0.009610549546778202,0.2171783447265625,0.974365234375,0.0859222412109375
10.68,-0.014159761369228363,0.016641560941934586,-0.0015454323729500175,0.2222137451171875,0.9720001220703125,0.082183837890625
10.7,-0.006082660052925348,0.021458420902490616,0.010647584684193134,0.22454833984375,0.9677276611328125,0.0780487060546875
10.72,-0.0012921657180413604,0.03833966702222824,0.011231082491576672,0.2202301025390625,0.9691619873046875,0.0794830322265625
10.74,0.009298693388700485,0.021918881684541702,0.0007214503129944205,0.2110748291015625,0.973236083984375,0.081298828125
10.76,0.007056578062474728,0.0008170577930286527,-0.004247209057211876,0.2046051025390625,0.9715576171875,0.0848236083984375
10.78,-0.0022040321491658688,-0.019689815118908882,-0.006187322083860636,0.2071990966796875,0.9712677001953125,0.0876922607421875
10.8,-0.00971308071166277,-0.023601999506354332,-0.013034309260547161,0.205657958984375,0.9717559814453125,0.0903167724609375
10.82,-0.009916813112795353,-0.015969645231962204,-0.012955479323863983,0.2060546875,0.9708099365234375,0.0920257568359375
10.84,-0.011955728754401207,0.0005856291390955448,-0.014605307951569557,0.204803466796875,0.968994140625,0.090179443359375
10.86,-0.010941597633063793,0.012388492934405804,-0.012340555898845196,0.208587646484375,0.97210693359375,0.09039306640625
10.88,-0.017430389299988747,0.019296465441584587,-0.009433981962502003,0.2124481201171875,0.9727783203125,0.087982177734375
10.9,-0.019759323447942734,0.009250756353139877,-0.002715891692787409,0.2158355712890625,0.969635009765625,0.0901641845703125
10.92,-0.019812321290373802,-0.007192931603640318,-0.0016903083305805922,0.21923828125,0.9707489013671875,0.0885162353515625
10.94,-0.01914200372993946,-0.011064102873206139,0.0033989925868809223,0.215606689453125,0.9713287353515625,0.08941650390625
10.96,-0.018061025068163872,-0.0008625978953205049,0.00321869645267725,0.2121429443359375,0.9692840576171875,0.0883026123046875
10.98,-0.01392833236604929,0.014822355471551418,-0.003397927153855562,0.2049407958984375,0.970550537109375,0.0878448486328125
11,-0.01426602154970169,0.01531850267201662,-0.014522483572363853,0.2005615234375,0.9734039306640625,0.0882568359375
11.02,-0.01065157912671566,-0.015177621506154537,-0.017971010878682137,0.20257568359375,0.97412109375,0.0889892578125
11.04,-0.017014136537909508,-0.05044879391789436,-0.016925187781453133,0.208740234375,0.9694976806640625,0.089874267578125
11.06,-0.018381670117378235,-0.0686056911945343,-0.01974041573703289,0.2102203369140625,0.967864990234375,0.09210205078125
11.08,-0.015533152967691422,-0.0823553279042244,-0.022350046783685684,0.2095794677734375,0.9704437255859375,0.0913543701171875
11.1,-0.018605375662446022,-0.07279644161462784,-0.022371085360646248,0.2077789306640625,0.9711456298828125,0.09356689453125
11.12,-0.02431146427989006,-0.05354950949549675,-0.021023260429501534,0.2088623046875,0.9712066650390625,0.094207763671875
11.14,-0.0229194313287735,-0.037577737122774124,-0.019832560792565346,0.2095489501953125,0.9713134765625,0.0958404541015625
11.16,-0.02046745829284191,-0.02251542918384075,-0.01073839794844389,0.2115631103515625,0.9712066650390625,0.09356689453125
11.18,-0.024895763024687767,-0.00384400668554008,-0.003495665267109871,0.2143096923828125,0.9719390869140625,0.0931549072265625
11.2,-0.024041952565312386,0.004519650712609291,0.0037942056078463793,0.212646484375,0.971038818359375,0.093353271484375
11.22,-0.02371225319802761,0.006786000914871693,0.0025121597573161125,0.2134552001953125,0.9735260009765625,0.09173583984375
11.24,-0.01720402017235756,-0.013197827152907848,0.0027984497137367725,0.2087860107421875,0.970062255859375,0.0897216796875
11.26,-0.016684170812368393,-0.028185298666357994,0.00007669904152862728,0.2115478515625,0.970458984375,0.0892486572265625
11.28,-0.015684686601161957,-0.040579915046691895,-0.0009076052810996771,0.2086639404296875,0.970794677734375,0.089508056640625
11.3,-0.015672702342271805,-0.044989846646785736,-0.008248608559370041,0.20379638671875,0.9719085693359375,0.0912628173828125
11.32,-0.012121111154556274,-0.05819858983159065,-0.008855809457600117,0.2037811279296875,0.972320556640625,0.0936279296875
11.34,-0.005259210709482431,-0.07458928227424622,-0.014480938203632832,0.2000885009765625,0.971099853515625,0.0912628173828125
11.36,-0.004449343308806419,-0.08017366379499435,-0.018921758979558945,0.1990203857421875,0.9720458984375,0.094268798828125
11.38,-0.011315771378576756,-0.0732869952917099,-0.019881030544638634,0.2016754150390625,0.97235107421875,0.0982208251953125
11.4,-0.01937316544353962,-0.06623547524213791,-0.01654888316988945,0.2037811279296875,0.9742584228515625,0.10107421875
11.42,-0.023839285597205162,-0.05410238355398178,-0.01594461128115654,0.2052764892578125,0.9700927734375,0.100341796875
11.44,-0.02274712361395359,-0.03765283524990082,-0.013759754598140717,0.204986572265625,0.9683685302734375,0.0991973876953125
11.46,-0.01799711026251316,-0.01648842915892601,-0.0057463026605546474,0.2066802978515625,0.970306396484375,0.09796142578125
11.48,-0.016804279759526253,0.00774740194901824,-0.0035832831636071205,0.209503173828125,0.9735565185546875,0.0970001220703125
11.5,-0.017012804746627808,0.016813067719340324,-0.0023190807551145554,0.2060394287109375,0.973175048828125,0.097991943359375
11.52,-0.014702247455716133,0.002156627830117941,-0.002177134156227112,0.2048187255859375,0.96923828125,0.0977020263671875
11.54,-0.02063550427556038,-0.0028551749419420958,-0.0038045919500291348,0.202911376953125,0.97039794921875,0.0978851318359375
11.56,-0.02448723278939724,0.004263720940798521,-0.0020927118603140116,0.20599365234375,0.9763641357421875,0.0972747802734375
11.58,-0.01841602474451065,0.012291553430259228,-0.0037491980474442244,0.2046356201171875,0.9720458984375,0.09405517578125
11.6,-0.0006064017652533948,0.0030397321097552776,0.000054328484111465514,0.2059326171875,0.973724365234375,0.092254638671875
11.62,0.00293373828753829,-0.0007321029552258551,0.003997670952230692,0.2091522216796875,0.9727630615234375,0.09124755859375
11.64,-0.0023547669406980276,-0.0020594224333763123,0.0031063109636306763,0.211029052734375,0.9681854248046875,0.091705322265625
11.66,0.006962568499147892,-0.013607155531644821,0.0062789348885416985,0.2099761962890625,0.970703125,0.0933837890625
11.68,0.006734601687639952,-0.012478240765631199,0.0009954896522685885,0.2053985595703125,0.9720306396484375,0.0950164794921875
11.7,0.006676811259239912,-0.012338691391050816,0.0035923379473388195,0.2044219970703125,0.9719390869140625,0.0975341796875
11.72,0.0007805725326761603,-0.008786034770309925,0.0008604673203080893,0.2012481689453125,0.9730682373046875,0.101715087890625
11.74,0.0008804410463199019,-0.0049156625755131245,0.0017036241479218006,0.2006683349609375,0.9713592529296875,0.100830078125
11.76,-0.002113218419253826,-0.0019385149935260415,0.0034434671979397535,0.2042083740234375,0.9719390869140625,0.103179931640625
11.78,-0.006540190894156694,0.006456833798438311,0.005420065484941006,0.2052154541015625,0.9727783203125,0.1019287109375
11.8,-0.008648082613945007,0.016039419919252396,0.005632585845887661,0.204986572265625,0.9697265625,0.0990142822265625
11.82,-0.0011411645682528615,0.01101483404636383,-0.0017973673529922962,0.2055511474609375,0.9723052978515625,0.0985870361328125
11.84,0.0010343717876821756,0.0004825647920370102,0.004072772338986397,0.20758056640625,0.9718017578125,0.0975341796875
11.86,-0.006425142288208008,0.002383262850344181,0.003162770066410303,0.2083740234375,0.9696807861328125,0.1002197265625
11.88,0.0005243764026090503,0.0029081718530505896,0.012030297890305519,0.20892333984375,0.9709930419921875,0.0994873046875
11.9,0.010393518954515457,0.008298410102725029,0.006989998742938042,0.2034149169921875,0.9714813232421875,0.098876953125
11.92,0.018501246348023415,0.01059112511575222,-0.0002860235108528286,0.201263427734375,0.973724365234375,0.0971527099609375
11.94,0.01369397435337305,0.009876066818833351,-0.0022801985032856464,0.199462890625,0.968719482421875,0.0997467041015625
11.96,-0.0007097324123606086,0.00746137835085392,-0.006593720521777868,0.20208740234375,0.9720001220703125,0.10308837890625
11.98,-0.002919357270002365,-0.009726663120090961,-0.0070091737434268,0.20428466796875,0.9701995849609375,0.102447509765625
12,-0.007357781287282705,-0.0034735610242933035,-0.004916994366794825,0.2102813720703125,0.969085693359375,0.1018829345703125
12.02,-0.009949835948646069,0.012411662377417088,0.005016596522182226,0.21429443359375,0.969818115234375,0.0987091064453125
12.04,0.0011763182701542974,0.023084281012415886,0.005510612856596708,0.216552734375,0.9732818603515625,0.0962066650390625
12.06,0.019295133650302887,0.010611365549266338,0.008899485692381859,0.2104949951171875,0.9704437255859375,0.094268798828125
12.08,0.01810630038380623,0.003151318524032831,0.008803877979516983,0.2115631103515625,0.9669036865234375,0.092132568359375
12.1,0.013260677456855774,-0.014190121553838253,-0.0002492718631401658,0.2075653076171875,0.9677581787109375,0.0965728759765625
12.12,0.0089378347620368,-0.0339350625872612,-0.006329801399260759,0.20318603515625,0.9709014892578125,0.10009765625
12.14,-0.0009677927591837943,-0.0403229221701622,-0.012061456218361855,0.200531005859375,0.9720916748046875,0.1004791259765625
12.16,0.002121474128216505,-0.03217045217752457,-0.00785685796290636,0.204132080078125,0.97247314453125,0.100616455078125
12.18,0.005148422904312611,-0.010714163072407246,-0.005873601883649826,0.207061767578125,0.9712371826171875,0.099273681640625
12.2,0.00777722941711545,0.0024413196370005608,0.000818123109638691,0.20892333984375,0.971832275390625,0.0971221923828125
12.22,0.006027532275766134,0.009605223312973976,0.00629091914743185,0.2115325927734375,0.9705352783203125,0.09686279296875
12.24,0.003300189273431897,0.010518953204154968,0.013312876224517822,0.212310791015625,0.9685516357421875,0.095550537109375
12.26,-0.00039974047103896737,0.026885144412517548,0.012291020713746548,0.2104034423828125,0.9696807861328125,0.095123291015625
12.28,-0.0035457327030599117,0.031065240502357483,0.01010696217417717,0.2057647705078125,0.973358154296875,0.0960540771484375
12.3,0.004624579101800919,0.01185133308172226,0.011296063661575317,0.2012481689453125,0.971099853515625,0.09466552734375
12.32,-0.0001984054979402572,0.015467372722923756,0.009196960367262363,0.2051544189453125,0.9741058349609375,0.09210205078125
12.34,-0.0018993664998561144,0.020611802116036415,0.011947739869356155,0.203216552734375,0.972686767578125,0.09051513671875
12.36,0.005587045568972826,0.01854146085679531,0.009880061261355877,0.2041473388671875,0.97344970703125,0.088592529296875
12.38,0.015394669026136398,0.02598925679922104,0.0005107942852191627,0.2051239013671875,0.9732818603515625,0.0858612060546875
12.4,0.02297988347709179,0.019723903387784958,0.005293831694871187,0.2081146240234375,0.9720916748046875,0.0836334228515625
12.42,0.021312478929758072,0.007337008602917194,0.012298477813601494,0.217376708984375,0.9720001220703125,0.083953857421875
12.44,0.026256104931235313,-0.015376559458673,0.018700717017054558,0.220855712890625,0.9719390869140625,0.0852203369140625
12.46,0.0358610600233078,-0.02931154891848564,0.022964704781770706,0.217926025390625,0.970123291015625,0.0833587646484375
12.48,0.035234954208135605,-0.02419242076575756,0.01974361017346382,0.2093963623046875,0.9688720703125,0.0877532958984375
12.5,0.03885578736662865,-0.0359894260764122,0.012986638583242893,0.20318603515625,0.97247314453125,0.09259033203125
12.52,0.030358970165252686,-0.05187118798494339,0.0033569145016372204,0.2011566162109375,0.97552490234375,0.0988616943359375
12.54,0.00839614775031805,-0.049433328211307526,-0.003958788700401783,0.1994781494140625,0.9708099365234375,0.100860595703125
12.56,-0.0065170214511454105,-0.04716964438557625,-0.006079197861254215,0.200836181640625,0.9688568115234375,0.103973388671875
12.58,-0.011775699444115162,-0.0319448821246624,-0.0036538569256663322,0.2079010009765625,0.970184326171875,0.1009674072265625
12.6,-0.010183927603065968,-0.009607086889445782,0.0019446401856839657,0.2128143310546875,0.9698486328125,0.0965728759765625
12.62,-0.003180879633873701,0.016457270830869675,0.009441704489290714,0.2165374755859375,0.9722900390625,0.0929718017578125
12.64,0.006432865746319294,0.026524817571043968,0.014705442823469639,0.2176971435546875,0.971435546875,0.08990478515625
12.66,0.011123225092887878,0.021450163796544075,0.01853560097515583,0.2155609130859375,0.9693145751953125,0.089813232421875
12.68,0.010801514610648155,-0.003198190126568079,0.015530490316450596,0.2136993408203125,0.9686431884765625,0.08935546875
12.7,0.01010722853243351,-0.027582092210650444,0.009677127934992313,0.20941162109375,0.96929931640625,0.0918121337890625
12.72,0.0020184097811579704,-0.033786460757255554,0.007169762160629034,0.207489013671875,0.974517822265625,0.09405517578125
12.74,-0.0008876316132955253,-0.026507508009672165,0.00487225316464901,0.20513916015625,0.973785400390625,0.096038818359375
12.76,0.0004953479510731995,-0.016743293032050133,-0.0019435749854892492,0.201263427734375,0.97137451171875,0.094146728515625
12.78,0.006521548610180616,-0.013605291023850441,-0.002912166528403759,0.201141357421875,0.9722137451171875,0.0922698974609375
12.8,0.004573978949338198,-0.002877279184758663,-0.0068270135670900345,0.20391845703125,0.971038818359375,0.092559814453125
12.82,-0.004605138208717108,0.003041063668206334,-0.0049313753843307495,0.206024169921875,0.973907470703125,0.090728759765625
12.84,0.0003507383225951344,-0.0005768407136201859,-0.0002671150432433933,0.2135772705078125,0.9696807861328125,0.08966064453125
12.86,0.0013579458463937044,0.00959856528788805,0.00791411567479372,0.21710205078125,0.9712677001953125,0.0888671875
12.88,0.0016823188634589314,0.0196679774671793,0.012436696328222752,0.2158050537109375,0.9714813232421875,0.0866241455078125
12.9,0.008768457919359207,0.025736255571246147,0.016162991523742676,0.2146759033203125,0.970672607421875,0.0859375
12.92,0.017341971397399902,0.021406488493084908,0.017600830644369125,0.2153778076171875,0.9710540771484375,0.08306884765625
12.94,0.01763997972011566,0.009308546781539917,0.020302075892686844,0.2147369384765625,0.97088623046875,0.081817626953125
12.96,0.006628874223679304,0.003317499766126275,0.019931895658373833,0.21380615234375,0.9711151123046875,0.083251953125
12.98,0.018206167966127396,-0.039916522800922394,0.011595402844250202,0.2131500244140625,0.973541259765625,0.0853271484375
13,0.023669909685850143,-0.07276954501867294,0.003040530951693654,0.2081756591796875,0.9675140380859375,0.0856781005859375
13.02,0.018087390810251236,-0.0711657926440239,-0.000472977408207953,0.2057647705078125,0.96514892578125,0.08935546875
13.04,0.006411293987184763,-0.06960837543010712,-0.01744903065264225,0.20452880859375,0.9721527099609375,0.093994140625
13.06,0.0038309572264552116,-0.08437853306531906,-0.012558935210108757,0.2010345458984375,0.970855712890625,0.0956878662109375
13.08,-0.008289887569844723,-0.06973593682050705,-0.018375279381871223,0.20159912109375,0.9698028564453125,0.0963897705078125
13.1,-0.01883387565612793,-0.05463847890496254,-0.027394872158765793,0.2002716064453125,0.9730987548828125,0.097900390625
13.12,-0.027088075876235962,-0.03250308334827423,-0.025429725646972656,0.2059478759765625,0.977142333984375,0.0955963134765625
13.14,-0.034571558237075806,-0.012087289243936539,-0.01884479448199272,0.2137451171875,0.971282958984375,0.090545654296875
13.16,-0.03556198999285698,0.008243015967309475,-0.008790561929345131,0.2184600830078125,0.9675140380859375,0.08599853515625
13.18,-0.03446450084447861,0.015329687856137753,0.00002450108149787411,0.2270965576171875,0.97137451171875,0.078887939453125
13.2,-0.013370666652917862,-0.012682239525020123,0.010529872961342335,0.2295684814453125,0.9668731689453125,0.07562255859375
13.22,0.006588660646229982,-0.050462640821933746,0.016039952635765076,0.2288665771484375,0.9649658203125,0.07354736328125
13.24,0.011903797276318073,-0.04867246374487877,0.028117388486862183,0.2247314453125,0.969573974609375,0.07275390625
13.26,0.0225609689950943,-0.03526424616575241,0.026381006464362144,0.2154541015625,0.974334716796875,0.077178955078125
13.28,0.02381877973675728,-0.0237607229501009,0.015923306345939636,0.20355224609375,0.97552490234375,0.080230712890625
13.3,0.022368688136339188,-0.018928950652480125,0.01872415281832218,0.19940185546875,0.9742279052734375,0.0849609375
13.32,0.011394601315259933,-0.019160112366080284,0.0021427792962640524,0.195953369140625,0.972869873046875,0.08734130859375
13.34,0.0060086240991950035,-0.03639369457960129,-0.011228419840335846,0.1944427490234375,0.9745941162109375,0.09173583984375
13.36,-0.000857005245052278,-0.0505923368036747,-0.018997127190232277,0.198333740234375,0.9697723388671875,0.0918731689453125
13.38,-0.013029782101511955,-0.042456913739442825,-0.008990831673145294,0.20648193359375,0.9716033935546875,0.092529296875
13.4,-0.019576098769903183,-0.012860937044024467,0.001695900922641158,0.21490478515625,0.9760894775390625,0.088653564453125
13.42,-0.0054970309138298035,0.017767544835805893,0.008043811656534672,0.2136688232421875,0.9705047607421875,0.0855712890625
13.44,0.01082654856145382,0.04694300889968872,0.011185276322066784,0.214324951171875,0.972930908203125,0.0800933837890625
13.46,0.022490927949547768,0.050220027565956116,0.012091283686459064,0.21246337890625,0.96966552734375,0.0814208984375
13.48,0.01449904777109623,0.05517750233411789,0.011817244812846184,0.2081756591796875,0.969146728515625,0.0826263427734375
13.5,0.008533567190170288,0.05221819877624512,0.0049319081008434296,0.2088775634765625,0.9733734130859375,0.0870819091796875
13.52,0.0065199509263038635,0.033844251185655594,-0.0018540926976129413,0.2048797607421875,0.9740753173828125,0.0858001708984375
13.54,-0.005365204066038132,0.0291775930672884,-0.0023276028223335743,0.205108642578125,0.9740447998046875,0.0874176025390625
13.56,-0.005769205745309591,0.02328002266585827,-0.00692075677216053,0.207855224609375,0.9715576171875,0.0854949951171875
13.58,0.0035217641852796078,0.026635605841875076,-0.003913781605660915,0.212432861328125,0.972808837890625,0.0831298828125
13.6,0.004573712591081858,0.03965606540441513,-0.0032495891209691763,0.2144622802734375,0.9681549072265625,0.0811614990234375
13.62,0.005501025356352329,0.05470691993832588,-0.003936684690415859,0.2122802734375,0.96722412109375,0.0829925537109375
13.64,0.013816479593515396,0.04921228811144829,-0.0004854942671954632,0.2161712646484375,0.9714508056640625,0.08306884765625
13.66,0.013773602433502674,0.04850814864039421,-0.0007544735562987626,0.21673583984375,0.9719085693359375,0.082611083984375
13.68,0.008934373036026955,0.04700585827231407,-0.0035806200467050076,0.2155303955078125,0.9678802490234375,0.0840606689453125
13.7,0.003463441040366888,0.03284396603703499,-0.0036751623265445232,0.213592529296875,0.97052001953125,0.085906982421875
13.72,-0.003085538512095809,0.03297126665711403,-0.004996889270842075,0.2142791748046875,0.9717559814453125,0.0867767333984375
13.74,-0.0018540926976129413,0.024463796988129616,-0.003910319413989782,0.215789794921875,0.969512939453125,0.0865020751953125
13.76,0.00004820321555598639,0.023077888414263725,-0.007255782373249531,0.2175140380859375,0.9699859619140625,0.084014892578125
13.78,-0.0033281524665653706,0.026819895952939987,0.0024743429385125637,0.2198944091796875,0.967071533203125,0.08404541015625
13.8,0.005498095881193876,0.026452379301190376,0.0009603358921594918,0.2213592529296875,0.9672698974609375,0.0850372314453125
13.82,-0.00353428116068244,0.0276167131960392,0.0040796962566673756,0.2196197509765625,0.9706573486328125,0.0841522216796875
13.84,-0.015533952042460442,0.02972353994846344,0.009603092446923256,0.21844482421875,0.9717559814453125,0.0857391357421875
13.86,-0.004598480183631182,0.0002956108655780554,0.004141215234994888,0.217010498046875,0.97003173828125,0.08367919921875
13.88,0.00032863407977856696,-0.015674034133553505,0.004002198576927185,0.215667724609375,0.9677276611328125,0.083099365234375
13.9,-0.004053330980241299,-0.010100305080413818,0.004000600427389145,0.217254638671875,0.9697113037109375,0.0851593017578125
13.92,-0.005072522908449173,-0.0059998356737196445,0.00273693073540926,0.2127838134765625,0.9713134765625,0.0844573974609375
13.94,0.00041571943438611925,-0.004748948849737644,0.006508765742182732,0.210479736328125,0.970184326171875,0.0863800048828125
13.96,0.008329834789037704,-0.0017885789275169373,0.0013424995122477412,0.2095489501953125,0.9720458984375,0.0850067138671875
13.98,0.004883171990513802,0.0017129451734945178,-0.008053931407630444,0.20831298828125,0.9708709716796875,0.087066650390625
14,0.002798982197418809,0.0034147051628679037,-0.008852081373333931,0.2096710205078125,0.9699249267578125,0.0899658203125
14.02,-0.011492338962852955,0.008271245285868645,-0.0060120862908661366,0.213958740234375,0.9756622314453125,0.0894775390625
14.04,-0.010201770812273026,-0.004780107643455267,-0.00660517206415534,0.2114715576171875,0.9669189453125,0.0888214111328125
14.06,-0.002374208066612482,-0.01683836802840233,-0.009123191237449646,0.2127227783203125,0.970001220703125,0.0868682861328125
14.08,-0.0024000408593565226,-0.0076123797334730625,-0.000176301269675605,0.214324951171875,0.972320556640625,0.086639404296875
14.1,-0.008066448383033276,0.015282549895346165,0.00301709515042603,0.2124481201171875,0.97247314453125,0.086669921875
14.12,-0.005138569511473179,0.03074273280799389,-0.0014945659786462784,0.2063140869140625,0.96954345703125,0.088287353515625
14.14,-0.004592354875057936,0.028981583192944527,-0.0059692091308534145,0.2047882080078125,0.975067138671875,0.08843994140625
14.16,-0.001580053474754095,0.011260643601417542,-0.01763997972011566,0.2036895751953125,0.9740447998046875,0.0875396728515625
14.18,-0.0032434638123959303,-0.007261374965310097,-0.011423096992075443,0.21142578125,0.967987060546875,0.08648681640625
14.2,-0.010566091164946556,-0.0033358754590153694,-0.012490757741034031,0.2174224853515625,0.9686126708984375,0.087005615234375
14.22,-0.0067788101732730865,0.004524444229900837,-0.010763431899249554,0.2181243896484375,0.969757080078125,0.0855560302734375
14.24,0.0005773733137175441,0.011126420460641384,-0.0033041839487850666,0.218414306640625,0.970458984375,0.08489990234375
14.26,0.006419816054403782,0.0268944650888443,0.0018543590558692813,0.214813232421875,0.970184326171875,0.08502197265625
14.28,0.014704377390444279,0.036324985325336456,0.0029760824982076883,0.21148681640625,0.9728546142578125,0.0871429443359375
14.3,0.01486150361597538,0.03694789856672287,-0.000060453756304923445,0.2081451416015625,0.972808837890625,0.087188720703125
14.32,-0.0023329290561378,0.03478407859802246,-0.0035422705113887787,0.2071990966796875,0.971435546875,0.0924072265625
14.34,-0.009463809430599213,0.022905049845576286,-0.0038341530598700047,0.208831787109375,0.97265625,0.09271240234375
14.36,-0.00865953415632248,0.016409067437052727,-0.002808569697663188,0.2131805419921875,0.97320556640625,0.09027099609375
14.38,-0.0036669063847512007,0.020534303039312363,-0.0017073525814339519,0.2150421142578125,0.97265625,0.0866241455078125
14.4,0.005583849735558033,0.02105548419058323,-0.001243962557055056,0.2141876220703125,0.9679718017578125,0.08551025390625
14.42,0.004841094370931387,0.019788086414337158,-0.0012029499048367143,0.2126312255859375,0.9718780517578125,0.0843505859375
14.44,0.011094729416072369,0.006934072356671095,-0.0006269080913625658,0.2144622802734375,0.969482421875,0.08526611328125
14.46,0.014168282970786095,-0.0107695572078228,0.0007254450465552509,0.215362548828125,0.9695892333984375,0.0864410400390625
14.48,0.010713896714150906,-0.017176590859889984,0.0005648564547300339,0.2116546630859375,0.9708404541015625,0.0882415771484375
14.5,0.007291202433407307,-0.01600879430770874,-0.0007789746159687638,0.2111358642578125,0.9748992919921875,0.0919036865234375
14.52,0.013672136701643467,-0.015180550515651703,-0.0012239888310432434,0.20587158203125,0.9721221923828125,0.09228515625
14.54,0.013313142582774162,0.0031547807157039642,0.0003552656853571534,0.204559326171875,0.9708099365234375,0.0930023193359375
14.56,0.003997670952230692,0.038600388914346695,-0.00395745737478137,0.200958251953125,0.9716644287109375,0.0949249267578125
14.58,0.0008831042214296758,0.059180233627557755,-0.009906692430377007,0.2023162841796875,0.9732513427734375,0.096221923828125
14.6,0.003204049076884985,0.058823633939027786,-0.006865895353257656,0.2061309814453125,0.9710693359375,0.092071533203125
14.62,-0.002025866648182273,0.05805877596139908,-0.004487160127609968,0.211334228515625,0.967620849609375,0.09002685546875
14.64,-0.009613478556275368,0.0647137463092804,0.004324440844357014,0.2132720947265625,0.9695892333984375,0.0895843505859375
14.66,-0.004458398092538118,0.05594902113080025,0.010307231917977333,0.216888427734375,0.9740142822265625,0.0870208740234375
14.68,0.001945705502294004,0.05945773422718048,0.019687950611114502,0.2136993408203125,0.97308349609375,0.0836944580078125
14.7,0.004035487771034241,0.06799822300672531,0.01136983372271061,0.20947265625,0.9725494384765625,0.0823516845703125
14.72,0.011604458093643188,0.05534474924206734,0.0033329459838569164,0.2054595947265625,0.9738616943359375,0.0832366943359375
14.74,0.009154349565505981,0.032876722514629364,-0.004894357640296221,0.20361328125,0.9707489013671875,0.08258056640625
14.76,0.0004386226355563849,0.004165450111031532,-0.012278503738343716,0.2048187255859375,0.9711151123046875,0.0838470458984375
14.78,0.00041864890954457223,-0.01998942159116268,-0.009348494000732899,0.2111358642578125,0.97357177734375,0.0851287841796875
14.8,0.00041571943438611925,-0.015157114714384079,-0.002883670851588249,0.21527099609375,0.97119140625,0.0851287841796875
14.82,0.010293916799128056,0.010489658452570438,0.006342850625514984,0.2140350341796875,0.974700927734375,0.08441162109375
14.84,0.02111726999282837,0.028871595859527588,0.007556719705462456,0.208953857421875,0.9744415283203125,0.0809478759765625
14.86,0.030650587752461433,0.028318990021944046,-0.005305549595504999,0.20458984375,0.97125244140625,0.083465576171875
14.88,0.0273250974714756,0.008800681680440903,-0.010988202877342701,0.199798583984375,0.971435546875,0.0891265869140625
14.9,0.002254632068797946,-0.005532717332243919,-0.013944311067461967,0.206085205078125,0.973541259765625,0.09466552734375
14.92,-0.01576484739780426,-0.01636725477874279,-0.010404437780380249,0.210296630859375,0.973175048828125,0.0933990478515625
14.94,-0.01811455562710762,-0.00944782979786396,-0.004351871553808451,0.2145538330078125,0.9696807861328125,0.0909423828125
14.96,-0.0027779433876276016,0.0021885856986045837,0.004050934221595526,0.216094970703125,0.9716339111328125,0.084808349609375
14.98,0.007743140682578087,0.028437500819563866,0.013697169721126556,0.2164764404296875,0.9704742431640625,0.0821380615234375
15,0.013831925578415394,0.05926838144659996,0.015136342495679855,0.21484375,0.97210693359375,0.083770751953125
15.02,0.01733984239399433,0.05342967063188553,0.014927283860743046,0.20806884765625,0.973846435546875,0.0821990966796875
15.04,0.019889285787940025,0.022912239655852318,0.010676346719264984,0.205352783203125,0.9705657958984375,0.0854339599609375
15.06,0.012863866984844208,-0.002170742489397526,0.0021057615522295237,0.202301025390625,0.9720306396484375,0.088104248046875
15.08,0.005555886775255203,-0.015896940603852272,-0.006196376867592335,0.1985626220703125,0.9746551513671875,0.0904388427734375
15.1,0.00022663500567432493,-0.031611453741788864,-0.013990916311740875,0.1979827880859375,0.975128173828125,0.091461181640625
15.12,0.0011084076249971986,-0.030002374202013016,-0.01937742717564106,0.1988677978515625,0.974273681640625,0.091705322265625
15.14,-0.0002442118711769581,-0.012853214517235756,-0.01678936555981636,0.2042999267578125,0.9706268310546875,0.088836669921875
15.16,0.0036434705834835768,0.007345530670136213,-0.012056396342813969,0.2100067138671875,0.9722442626953125,0.0879974365234375
15.18,0.007956726476550102,0.02195856161415577,-0.0027385284192860126,0.2117767333984375,0.9701385498046875,0.0866851806640625
15.2,0.011988752521574497,0.04483378306031227,0.001671932521276176,0.212677001953125,0.9692535400390625,0.08514404296875
15.22,0.012104599736630917,0.057436928153038025,0.012204734608530998,0.2116241455078125,0.9728546142578125,0.086395263671875
15.24,0.008371113799512386,0.06873618811368942,0.010046242736279964,0.2115020751953125,0.9713592529296875,0.086334228515625
15.26,0.008741825819015503,0.06294514238834381,0.005031243897974491,0.206207275390625,0.97308349609375,0.0869903564453125
15.28,0.01333045307546854,0.04445987567305565,0.0032988577149808407,0.2044677734375,0.9705963134765625,0.0849456787109375
15.3,0.004988899454474449,0.026007365435361862,-0.004166781902313232,0.2046356201171875,0.971923828125,0.08642578125
15.32,-0.003064765827730298,0.017137175425887108,-0.010059026069939137,0.2042999267578125,0.9718017578125,0.08740234375
15.34,-0.003976898267865181,0.0038490667939186096,-0.009771403856575489,0.2078857421875,0.9725799560546875,0.0869140625
15.36,0.000550475378986448,-0.00010972223390126601,-0.007876564748585224,0.20989990234375,0.971221923828125,0.0841064453125
15.38,0.002299905987456441,0.02269466035068035,-0.0016133430181071162,0.210723876953125,0.9734039306640625,0.08074951171875
15.4,0.006405435036867857,0.037630997598171234,-0.000011984225238848012,0.2096710205078125,0.9720306396484375,0.0834503173828125
15.42,0.015220764093101025,0.041556231677532196,-0.0020386497490108013,0.2062225341796875,0.971588134765625,0.0816192626953125
15.44,0.015106515027582645,0.025318406522274017,-0.006368949543684721,0.20440673828125,0.9713134765625,0.0835113525390625
15.46,0.004716458264738321,0.006611830089241266,-0.009950901381671429,0.2074737548828125,0.972381591796875,0.0858612060546875
15.48,-0.008341819047927856,-0.006419283337891102,-0.009199890308082104,0.208770751953125,0.9727325439453125,0.087738037109375
15.5,-0.015051919966936111,-0.007013434544205666,-0.003457315731793642,0.211395263671875,0.971649169921875,0.0886383056640625
15.52,-0.015505456365644932,0.008127168752253056,-0.003093527862802148,0.208770751953125,0.970794677734375,0.0861358642578125
15.54,-0.003888215171173215,0.023680029436945915,-0.0025592977181077003,0.207763671875,0.9733734130859375,0.081939697265625
15.56,0.0002889529860112816,0.032889239490032196,0.00010359696898376569,0.2077178955078125,0.973541259765625,0.08123779296875
15.58,-0.001876995898783207,0.033359020948410034,0.0013315805699676275,0.20904541015625,0.9716339111328125,0.0814971923828125
15.6,-0.00041012681322172284,0.01341540738940239,0.0016490293201059103,0.20965576171875,0.97271728515625,0.0807647705078125
15.62,0.0037462685722857714,-0.0008165251929312944,0.0030897995457053185,0.209991455078125,0.9731903076171875,0.0809173583984375
15.64,0.005019792355597019,-0.010852647945284843,-0.00040480049210600555,0.2080230712890625,0.97100830078125,0.0826416015625
15.66,0.0037409423384815454,-0.01143002137541771,0.0020722055342048407,0.205169677734375,0.9754180908203125,0.081512451171875
15.68,0.005877064075320959,-0.004716458264738321,-0.001722798915579915,0.202972412109375,0.9741363525390625,0.0843658447265625
15.7,0.007202519103884697,-0.009238772094249725,-0.006098372396081686,0.201751708984375,0.9711761474609375,0.085540771484375
15.72,0.0010487528052181005,-0.01543568167835474,-0.010702445171773434,0.201263427734375,0.9728546142578125,0.0861358642578125
15.74,-0.0010226538870483637,-0.021572137251496315,-0.006590258330106735,0.20849609375,0.97216796875,0.0877838134765625
15.76,-0.004859203472733498,-0.02111913450062275,-0.0031529164407402277,0.2093505859375,0.9706878662109375,0.086822509765625
15.78,-0.0036131106317043304,-0.007385744713246822,0.0046301716938614845,0.2093048095703125,0.9695281982421875,0.0858154296875
15.8,-0.007506652269512415,0.018393388018012047,0.0030160299502313137,0.2076416015625,0.9742584228515625,0.087432861328125
15.82,-0.0018498316640034318,0.02563825249671936,0.0046658581122756,0.2044830322265625,0.974853515625,0.0868682861328125
15.84,-0.0019523634109646082,0.028929919004440308,0.003876763628795743,0.2053680419921875,0.9743804931640625,0.0843963623046875
15.86,-0.008470450527966022,0.020440826192498207,0.0015893745003268123,0.2036285400390625,0.972991943359375,0.0851593017578125
15.88,-0.01167689636349678,0.00006231796578504145,-0.001743571599945426,0.2045745849609375,0.970916748046875,0.0847015380859375
15.9,-0.010192450135946274,-0.02882871776819229,-0.0037297571543604136,0.203857421875,0.9725341796875,0.0853271484375
15.92,-0.009042763151228428,-0.030437268316745758,-0.002192580606788397,0.206939697265625,0.9730682373046875,0.08245849609375
15.94,-0.010363957844674587,-0.015861520543694496,-0.0003022687742486596,0.2074737548828125,0.974151611328125,0.0831451416015625
15.96,0.005833920557051897,-0.002570749493315816,0.0005869606975466013,0.206634521484375,0.9725799560546875,0.08074951171875
15.98,0.015174425207078457,0.006870955694466829,0.0051508196629583836,0.2042999267578125,0.9721832275390625,0.0809783935546875
16,0.0191984623670578,0.008955944329500198,-0.0003709783486556262,0.202972412109375,0.9736175537109375,0.0838470458984375
16.02,0.0011046791914850473,0.009246495552361012,-0.004062119405716658,0.201629638671875,0.9763336181640625,0.088470458984375
16.04,-0.005948170088231564,-0.010714695788919926,-0.00649704784154892,0.2025299072265625,0.9752349853515625,0.0911102294921875
16.06,-0.00960016343742609,-0.025371668860316277,-0.0038751657120883465,0.2036285400390625,0.9707794189453125,0.0890350341796875
16.08,-0.012471583671867847,-0.010872887447476387,0.007821704261004925,0.2096099853515625,0.9714813232421875,0.0858612060546875
16.1,-0.004025368019938469,0.00948218535631895,0.013447898440063,0.211456298828125,0.9746246337890625,0.0861358642578125
16.12,0.007809187285602093,0.02989877760410309,0.011748002842068672,0.2052459716796875,0.973907470703125,0.0826873779296875
16.14,0.011594071984291077,0.03628024458885193,0.004448810592293739,0.199615478515625,0.9712066650390625,0.0849609375
16.16,0.005043228156864643,0.031086547300219536,0.0030517163686454296,0.2006378173828125,0.973785400390625,0.0883026123046875
16.18,-0.003063700394704938,0.008716260083019733,-0.0032615733798593283,0.199859619140625,0.9713897705078125,0.09173583984375
16.2,-0.010722152888774872,-0.014224742539227009,-0.007810784969478846,0.203155517578125,0.9722900390625,0.0904541015625
16.22,-0.01673557050526142,-0.02526381053030491,-0.00657694274559617,0.205780029296875,0.9743499755859375,0.089263916015625
16.24,-0.010697918012738228,-0.02298387885093689,-0.002582201035693288,0.2079010009765625,0.972869873046875,0.0879364013671875
16.26,-0.009311743080615997,0.002287389012053609,-0.0000023968450477696024,0.2094573974609375,0.971435546875,0.084014892578125
16.28,-0.001823732745833695,0.013056146912276745,0.0023390543647110462,0.207672119140625,0.972686767578125,0.0830078125
16.3,0.006291984114795923,0.0041529336012899876,0.006735933478921652,0.2109222412109375,0.9725189208984375,0.0829315185546875
16.32,0.0015158712631091475,0.007496798411011696,0.006848851218819618,0.2102203369140625,0.969879150390625,0.0851898193359375
16.34,-0.0021521004382520914,-0.0036698358599096537,0.005421929527074099,0.2089691162109375,0.9724578857421875,0.08709716796875
16.36,-0.00024980452144518495,-0.001136104459874332,0.003939614165574312,0.20416259765625,0.973388671875,0.08917236328125
16.38,-0.005880792159587145,0.0020783308427780867,-0.002124936319887638,0.2027435302734375,0.97222900390625,0.089599609375
16.4,-0.0067226174287498,0.0008655273704789579,-0.004422445315867662,0.2016754150390625,0.972686767578125,0.08795166015625
16.42,-0.004345746245235205,0.0041132522746920586,-0.0035028557758778334,0.20367431640625,0.9744110107421875,0.0880889892578125
16.44,-0.0018093516118824482,0.0012351741315796971,-0.000568052229937166,0.2072906494140625,0.9744110107421875,0.0882110595703125
16.46,-0.0025872609112411737,-0.008009457029402256,0.001362473238259554,0.2103118896484375,0.970306396484375,0.0853271484375
16.48,-0.002100967802107334,-0.015261244960129261,0.005083974450826645,0.2106170654296875,0.9696044921875,0.087554931640625
16.5,0.0013582120882347226,-0.013406086713075638,0.0006535397260449827,0.206329345703125,0.9717864990234375,0.08612060546875
16.52,-0.002132392954081297,-0.006045641843229532,-0.00213558878749609,0.2019500732421875,0.972991943359375,0.087890625
16.54,-0.0024684839881956577,-0.006698382552713156,-0.004138019867241383,0.2009124755859375,0.9728851318359375,0.0896148681640625
16.56,0.0008463526028208435,-0.006527407560497522,-0.010311493650078773,0.2023773193359375,0.9720916748046875,0.0894317626953125
16.58,-0.0002490055630914867,-0.016817329451441765,-0.008297078311443329,0.2038726806640625,0.9730682373046875,0.0877685546875
16.6,-0.0075607141479849815,-0.014604242518544197,-0.006055495701730251,0.20928955078125,0.9729461669921875,0.0892333984375
16.62,-0.007710916455835104,-0.011493138037621975,-0.0064954496920108795,0.2079315185546875,0.9719696044921875,0.0899200439453125
16.64,-0.008312257938086987,0.01119513064622879,0.002779541304334998,0.209381103515625,0.9720611572265625,0.08740234375
16.66,-0.009257148019969463,0.03825364634394646,0.00376064982265234,0.2122802734375,0.9728851318359375,0.0855865478515625
16.68,0.012300608679652214,0.023663517087697983,0.004461593925952911,0.2086334228515625,0.9716949462890625,0.0828094482421875
16.7,0.011445733718574047,0.01474432460963726,0.0011060107499361038,0.2070465087890625,0.969085693359375,0.0834197998046875
16.72,0.0016892430139705539,-0.001398159540258348,-0.00041811628034338355,0.2088165283203125,0.9718017578125,0.086395263671875
16.74,-0.003204581793397665,-0.018336130306124687,-0.00015180018090177327,0.20556640625,0.972686767578125,0.0880279541015625
16.76,-0.00318940170109272,-0.018578210845589638,-0.00577772781252861,0.2025909423828125,0.972442626953125,0.088592529296875
16.78,0.0005502090789377689,-0.004939098376780748,-0.01034584827721119,0.1997833251953125,0.9731597900390625,0.088043212890625
16.8,0.0041734399273991585,0.011900335550308228,-0.008372445590794086,0.1999359130859375,0.973236083984375,0.087738037109375
16.82,-0.0007502124644815922,0.02942579984664917,-0.006044044159352779,0.20263671875,0.971160888671875,0.0863494873046875
16.84,-0.00025513084256090224,0.02261929214000702,-0.006792658474296331,0.206390380859375,0.973114013671875,0.0877685546875
16.86,0.003612045431509614,0.0046783750876784325,-0.005766009911894798,0.2086029052734375,0.972320556640625,0.088134765625
16.88,-0.010264089331030846,0.005149754695594311,0.002239984693005681,0.2118988037109375,0.9708251953125,0.087005615234375
16.9,-0.004315652418881655,0.006155097857117653,0.008117049001157284,0.212127685546875,0.974273681640625,0.08624267578125
16.92,0.006359362509101629,0.013245497830212116,0.00803289283066988,0.20904541015625,0.971435546875,0.0841217041015625
16.94,0.012210327200591564,0.030105704441666603,0.005468801129609346,0.201690673828125,0.9721527099609375,0.083221435546875
16.96,0.007792941760271788,0.03265994042158127,-0.0017097494564950466,0.19976806640625,0.974212646484375,0.0875244140625
16.98,0.0013558153295889497,0.018263958394527435,-0.005345496814697981,0.199615478515625,0.9750213623046875,0.0868377685546875
17,0.0016314524691551924,-0.005106877535581589,-0.0035715652629733086,0.2057952880859375,0.9721527099609375,0.0881805419921875
17.02,0.004222708288580179,-0.00791358295828104,-0.0028839372098445892,0.208038330078125,0.9697723388671875,0.0847320556640625
17.04,0.005113002844154835,-0.001675128354690969,-0.0020415792241692543,0.206695556640625,0.972503662109375,0.08538818359375
17.06,0.004806472919881344,0.00430207047611475,-0.0057561565190553665,0.2042388916015625,0.9718017578125,0.086639404296875
17.08,0.006821953225880861,0.010758105665445328,-0.004923918284475803,0.203704833984375,0.9740142822265625,0.08917236328125
17.1,-0.0030975225381553173,0.01392859872430563,0.0006988134700804949,0.2058563232421875,0.972686767578125,0.08905029296875
17.12,0.0011888351291418076,0.010096309706568718,0.00344586418941617,0.206451416015625,0.9731903076171875,0.08807373046875
17.14,0.004210457671433687,0.011922439560294151,0.004295945167541504,0.20550537109375,0.9695892333984375,0.0866851806640625
17.16,-0.0001661812566453591,0.02984551340341568,0.00021172130072955042,0.2008056640625,0.9720916748046875,0.0871734619140625
17.18,0.00022983079543337226,0.028680646792054176,-0.006216350477188826,0.199493408203125,0.977020263671875,0.0903778076171875
17.2,-0.0067239492200315,0.021100224927067757,-0.0025063008069992065,0.2022247314453125,0.9743194580078125,0.089569091796875
17.22,-0.004742823541164398,0.018013620749115944,0.004277569241821766,0.2091827392578125,0.9716796875,0.0861053466796875
17.24,-0.0033270870335400105,0.009758887812495232,0.0062762717716395855,0.213623046875,0.9721221923828125,0.082855224609375
17.26,0.004570517223328352,0.003882356220856309,0.00697774812579155,0.2092132568359375,0.9723663330078125,0.0828704833984375
17.28,0.006564692128449678,-0.0007030745036900043,0.0012964267516508698,0.2051849365234375,0.970123291015625,0.0841217041015625
17.3,0.007536213379353285,-0.006573746912181377,0.002722017001360655,0.2011871337890625,0.9739837646484375,0.0861968994140625
17.32,0.005992112215608358,-0.004013383761048317,-0.004516721237450838,0.19915771484375,0.9764862060546875,0.0888214111328125
17.34,0.002272208919748664,-0.012644954957067966,-0.006198507267981768,0.1951141357421875,0.972412109375,0.0901031494140625
17.36,-0.0022453111596405506,-0.014674816280603409,-0.011991148814558983,0.19964599609375,0.973052978515625,0.090972900390625
17.38,-0.005278651602566242,-0.004852013196796179,-0.010601777583360672,0.1991119384765625,0.9740142822265625,0.091064453125
17.4,-0.0018642127979546785,-0.008449943736195564,-0.008310394361615181,0.203582763671875,0.973388671875,0.08929443359375
17.42,-0.000012783173588104546,-0.0031401331070810556,0.00012250541476532817,0.207611083984375,0.97149658203125,0.088623046875
17.44,0.001284975209273398,0.014868427999317646,0.005840045865625143,0.208953857421875,0.970001220703125,0.0877685546875
17.46,-0.0029848709236830473,0.04427372291684151,0.0049489522352814674,0.20751953125,0.9747467041015625,0.08740234375
17.48,0.004752411041408777,0.03249242901802063,0.005677592940628529,0.203765869140625,0.97247314453125,0.0875396728515625
17.5,0.009748234413564205,0.01720215566456318,0.0026727484073489904,0.203857421875,0.9722137451171875,0.0872344970703125
17.52,0.0014538196846842766,0.02197427488863468,0.0031758195254951715,0.20574951171875,0.973175048828125,0.0865020751953125
17.54,-0.001190166687592864,0.022496255114674568,0.006416087504476309,0.2043914794921875,0.972442626953125,0.0871429443359375
17.56,0.0037092508282512426,0.01967037469148636,0.006657369900494814,0.2041473388671875,0.97882080078125,0.0870513916015625
17.58,0.005401689559221268,0.02159717120230198,-0.002365153282880783,0.199554443359375,0.9718780517578125,0.0872039794921875
17.6,0.0041547976434230804,0.01330142468214035,-0.007123955991119146,0.200439453125,0.97027587890625,0.087127685546875
17.62,0.00566960358992219,-0.0011765845119953156,-0.011512579396367073,0.204132080078125,0.971832275390625,0.0878448486328125
17.64,0.0034700988326221704,0.0014676681021228433,-0.007212106604129076,0.2034149169921875,0.9713134765625,0.0870513916015625
17.66,-0.003982490859925747,0.006863764952868223,-0.0026999127585440874,0.20770263671875,0.9720916748046875,0.0886993408203125
17.68,-0.0028186896815896034,0.017051687464118004,0.0035862126387655735,0.206817626953125,0.973876953125,0.0875244140625
17.7,0.001032507512718439,0.018788602203130722,-0.0003222425002604723,0.203704833984375,0.9741058349609375,0.0863037109375
17.72,0.005294098053127527,0.008229966275393963,-0.0060088904574513435,0.20281982421875,0.97381591796875,0.08551025390625
17.74,0.01170406024903059,0.0024975123815238476,-0.0011254518758505583,0.2056732177734375,0.97052001953125,0.0883636474609375
17.76,-0.011208978481590748,0.020662933588027954,0.0017041567480191588,0.20806884765625,0.97332763671875,0.0898895263671875
17.78,-0.01375176478177309,0.019045064225792885,0.004625111818313599,0.208740234375,0.9736328125,0.08984375
17.8,0.0007597998483106494,0.014554441906511784,0.006028064992278814,0.206146240234375,0.97027587890625,0.0849456787109375
17.82,0.0025534387677907944,0.03345968946814537,0.006698116194456816,0.2056121826171875,0.973297119140625,0.082916259765625
17.84,0.004580104257911444,0.032819464802742004,0.007012635935097933,0.2042694091796875,0.9742431640625,0.0845794677734375
17.86,0.007782289292663336,0.018003500998020172,0.005328452680259943,0.2048492431640625,0.9710235595703125,0.084503173828125
17.88,0.001472461735829711,0.008844091556966305,0.005744704511016607,0.2040557861328125,0.9747314453125,0.0859527587890625
17.9,-0.00008362325752386823,-0.004354534670710564,0.006854976527392864,0.2039794921875,0.9730072021484375,0.086456298828125
17.92,0.006650712341070175,-0.010746654123067856,0.005342300981283188,0.20220947265625,0.97186279296875,0.08673095703125
17.94,0.006432066671550274,-0.005308212712407112,-0.0006058691651560366,0.19873046875,0.9759521484375,0.086944580078125
17.96,0.010357832536101341,-0.007647267077118158,-0.0007576693315058947,0.1998748779296875,0.97235107421875,0.0876617431640625
17.98,0.0014500912511721253,0.008500277064740658,-0.001990180229768157,0.203948974609375,0.9741668701171875,0.0875091552734375
18,0.0027441212441772223,0.004312989301979542,-0.00005406216951087117,0.20306396484375,0.9734954833984375,0.0893096923828125
18.02,0.00851412583142519,-0.004312190227210522,-0.0013797837309539318,0.2069854736328125,0.9705963134765625,0.0884552001953125
18.04,0.0032716933637857437,-0.0015544871566817164,0.0029622339643538,0.20458984375,0.9709014892578125,0.08770751953125
18.06,0.0015523566398769617,0.006430734880268574,0.008962868712842464,0.206939697265625,0.973175048828125,0.0878753662109375
18.08,0.0001805623178370297,0.013108611106872559,0.009239837527275085,0.2078704833984375,0.9740142822265625,0.087371826171875
18.1,0.005732454359531403,0.017913753166794777,0.007268565706908703,0.20263671875,0.9721527099609375,0.087310791015625
18.12,-0.0002798982313834131,0.02743801660835743,0.004652808886021376,0.198272705078125,0.9737548828125,0.0877685546875
18.14,-0.0003802994033321738,0.022950323298573494,0.0005752427969127893,0.19989013671875,0.97430419921875,0.0879364013671875
18.16,0.0017366473330184817,-0.000966727442573756,-0.0005635248962789774,0.2036895751953125,0.9712677001953125,0.086090087890625
18.18,-0.0017859158106148243,-0.012738698162138462,0.0011944277212023735,0.2088623046875,0.969940185546875,0.083831787109375
18.2,-0.0007909588166512549,-0.01312112808227539,0.0021054951939731836,0.2093963623046875,0.970703125,0.083953857421875
18.22,0.004891428165137768,-0.015148593112826347,0.009097358211874962,0.2111968994140625,0.9723052978515625,0.083587646484375
18.24,0.009269931353628635,-0.0023792681749910116,0.01014105137437582,0.206756591796875,0.97198486328125,0.0838775634765625
18.26,0.008213454857468605,0.012226039543747902,0.001166198286227882,0.1996002197265625,0.9745025634765625,0.085784912109375
18.28,0.010105897672474384,0.011433216743171215,-0.00230842805467546,0.1978759765625,0.9752349853515625,0.087005615234375
18.3,0.002436526119709015,0.010392719879746437,0.0017989652696996927,0.20318603515625,0.9728546142578125,0.086883544921875
18.32,-0.005860818549990654,-0.005335377063602209,0.001416002749465406,0.208740234375,0.9734039306640625,0.087005615234375
18.34,0.000040746363083599135,-0.019721772521734238,0.004447478801012039,0.21051025390625,0.9678802490234375,0.0863494873046875
18.36,-0.0005747101386077702,-0.005886118393391371,0.0041217743419110775,0.2111053466796875,0.9736175537109375,0.085662841796875
18.38,0.009588179178535938,-0.002728408435359597,0.01762639731168747,0.2098388671875,0.9736328125,0.0836334228515625
18.4,0.006944192573428154,0.019419504329562187,0.016522251069545746,0.20697021484375,0.97357177734375,0.084442138671875
18.42,0.004128698725253344,0.021340442821383476,0.011032943613827229,0.199371337890625,0.9732513427734375,0.0880889892578125
18.44,0.005992378573864698,0.008725314401090145,0.0008556736283935606,0.1995697021484375,0.9742279052734375,0.0871124267578125
18.46,0.00123783724848181,-0.005852030124515295,-0.004288222175091505,0.1994781494140625,0.970977783203125,0.0884552001953125
18.48,-0.001023186487145722,-0.021995313465595245,-0.006939931306988001,0.2010040283203125,0.9710693359375,0.0875091552734375
18.5,-0.007340204436331987,-0.023383086547255516,-0.00956687331199646,0.2041778564453125,0.97320556640625,0.0865478515625
18.52,-0.006429137196391821,-0.022818230092525482,-0.0043896883726119995,0.206787109375,0.97186279296875,0.0856475830078125
18.54,-0.004283960908651352,-0.02899596467614174,-0.00043755737715400755,0.2129364013671875,0.9705963134765625,0.0832977294921875
18.56,-0.0025102957151830196,-0.018632007762789726,0.005036303773522377,0.2148895263671875,0.9729156494140625,0.0798492431640625
18.58,0.01004837267100811,-0.02172260545194149,0.017667144536972046,0.2171478271484375,0.972564697265625,0.0823516845703125
18.6,0.00875034835189581,-0.00008388957212446257,0.01985146850347519,0.2113494873046875,0.97174072265625,0.0811309814453125
18.62,0.002668221015483141,0.027004186064004898,0.017354754731059074,0.2042694091796875,0.9713287353515625,0.0847930908203125
18.64,0.00015526228526141495,0.030178409069776535,0.010936803184449673,0.1987152099609375,0.9742889404296875,0.087432861328125
18.66,0.0024285365361720324,0.021029917523264885,-0.0013052152935415506,0.1964569091796875,0.976165771484375,0.085235595703125
18.68,0.0011398328933864832,-0.001026115962304175,-0.0035065840929746628,0.20074462890625,0.97430419921875,0.08673095703125
18.7,-0.003251187037676573,-0.014637532643973827,-0.0015773903578519821,0.204132080078125,0.9701080322265625,0.0863800048828125
18.72,-0.009906958788633347,-0.010433998890221119,-0.00002157160452043172,0.203887939453125,0.970458984375,0.08544921875
18.74,0.0035606464371085167,-0.004916994366794825,0.0014828480780124664,0.2070770263671875,0.9766082763671875,0.08282470703125
18.76,0.004324440844357014,0.006503705866634846,0.007101585157215595,0.210052490234375,0.9744110107421875,0.0821075439453125
18.78,-0.0008980178972706199,0.025061411783099174,0.010427873581647873,0.210235595703125,0.9714202880859375,0.081298828125
18.8,0.010485131293535233,0.026970097795128822,0.005586512852460146,0.208038330078125,0.970916748046875,0.083831787109375
18.82,0.01756354793906212,0.016323845833539963,0.0033872744534164667,0.2007598876953125,0.970733642578125,0.0829010009765625
18.84,0.004512459971010685,0.009473396465182304,-0.002980343531817198,0.202362060546875,0.972869873046875,0.0880584716796875
18.86,-0.007375624496489763,0.0005315669695846736,-0.0034738273825496435,0.2057342529296875,0.97442626953125,0.087371826171875
18.88,-0.011854528449475765,-0.010061156004667282,0.0055063520558178425,0.2100372314453125,0.9734649658203125,0.0890655517578125
18.9,-0.016681242734193802,0.00028336033574305475,0.009359147399663925,0.211639404296875,0.9716796875,0.0838775634765625
18.92,-0.001193362521007657,0.012716594152152538,0.007911186665296555,0.2109222412109375,0.9708251953125,0.082244873046875
18.94,0.009161540307104588,0.019123626872897148,0.009754626080393791,0.2072296142578125,0.970947265625,0.0801239013671875
18.96,0.014094513840973377,0.020501546561717987,0.00990323070436716,0.209716796875,0.9732666015625,0.080780029296875
18.98,0.011603126302361488,0.024332502856850624,0.010727479122579098,0.2061004638671875,0.9722900390625,0.08453369140625
19,0.007422229740768671,0.011669971980154514,0.0019286612514406443,0.201873779296875,0.97235107421875,0.0874481201171875
19.02,-0.00036272252327762544,0.0007757788407616317,-0.007719971239566803,0.2016754150390625,0.972015380859375,0.0901031494140625
19.04,-0.010565558448433876,-0.008962602354586124,-0.0065199509263038635,0.2042083740234375,0.972198486328125,0.089202880859375
19.06,-0.010240919888019562,-0.006490123458206654,-0.0016487629618495703,0.208740234375,0.973663330078125,0.0886993408203125
19.08,-0.012358931824564934,0.01455843634903431,0.002046106616035104,0.2138671875,0.971435546875,0.0852813720703125
19.1,0.0012322446564212441,0.014747254550457,0.006101834587752819,0.2122039794921875,0.9713134765625,0.0828704833984375
19.12,0.008131429553031921,0.018996594473719597,0.006487726699560881,0.2110748291015625,0.969329833984375,0.081573486328125
19.14,0.0025241440162062645,0.013521134853363037,0.01188302505761385,0.21160888671875,0.970001220703125,0.0829315185546875
19.16,-0.0016948357224464417,0.009337308816611767,0.009415073320269585,0.2111053466796875,0.973846435546875,0.0840301513671875
19.18,-0.0013350426452234387,0.0075758942402899265,0.00905581284314394,0.206634521484375,0.9713592529296875,0.0850067138671875
19.2,-0.002403502818197012,0.006215019151568413,0.0025513083674013615,0.2039337158203125,0.9707489013671875,0.0855712890625
19.22,-0.001186970854178071,-0.002825880190357566,-0.006641657557338476,0.2021636962890625,0.972869873046875,0.0859832763671875
19.24,0.0005864280392415822,-0.01432327926158905,-0.005937783978879452,0.2044219970703125,0.972198486328125,0.08673095703125
19.26,-0.0016905746888369322,-0.018325744196772575,-0.0000804274677648209,0.212066650390625,0.9728851318359375,0.0836181640625
19.28,-0.0036133769899606705,-0.010447847656905651,0.0031473238486796618,0.2122650146484375,0.971221923828125,0.0833892822265625
19.3,0.00007962851668708026,-0.009211874566972256,0.006918360013514757,0.2111358642578125,0.9705963134765625,0.0844879150390625
19.32,-0.0014743260107934475,-0.015859922394156456,0.00037470675306394696,0.2113037109375,0.9728851318359375,0.0832672119140625
19.34,-0.002484995638951659,-0.012576245702803135,0.0020327907986938953,0.207244873046875,0.97296142578125,0.08599853515625
19.36,-0.00504003232344985,-0.006900516804307699,-0.00011478224041638896,0.207061767578125,0.972625732421875,0.0856170654296875
19.38,-0.0014825817197561264,-0.007846205495297909,-0.0016325177857652307,0.20538330078125,0.971099853515625,0.0874481201171875
19.4,-0.0010551444720476866,-0.0020959076937288046,-0.003644003299996257,0.2042999267578125,0.9714202880859375,0.0863189697265625
19.42,-0.007311708759516478,0.006791859865188599,-0.00734366662800312,0.20465087890625,0.9715728759765625,0.0860595703125
19.44,-0.003935885615646839,-0.0034557178150862455,-0.002537992550060153,0.21173095703125,0.9739990234375,0.0866241455078125
19.46,-0.0030623688362538815,0.0008609999786131084,0.006921821739524603,0.2171478271484375,0.9749298095703125,0.081451416015625
19.48,-0.007107444107532501,0.011386611498892307,0.012880112044513226,0.2187042236328125,0.969207763671875,0.0816192626953125
19.5,0.007122357841581106,-0.004686630796641111,0.012264922261238098,0.2147216796875,0.96783447265625,0.0829925537109375
19.52,0.009002016857266426,-0.0012801815755665302,0.003991812001913786,0.20635986328125,0.9710235595703125,0.0843505859375
19.54,-0.0001901497016660869,-0.00030120351584628224,-0.00010093380114994943,0.2028045654296875,0.97430419921875,0.0877838134765625
19.56,-0.006311425473541021,-0.006632602773606777,-0.0014405038673430681,0.20306396484375,0.9738616943359375,0.0890655517578125
19.58,-0.014147777110338211,-0.0013187973527237773,-0.00583711639046669,0.204132080078125,0.9733123779296875,0.08880615234375
19.6,-0.008529040031135082,-0.006842725910246372,-0.008947954513132572,0.205902099609375,0.9744873046875,0.0863189697265625
19.62,0.0032839439809322357,-0.007218231912702322,-0.006346579175442457,0.2084197998046875,0.9693450927734375,0.0843963623046875
19.64,0.0008703210623934865,0.006051500793546438,0.005514607764780521,0.21453857421875,0.9697265625,0.08154296875
19.66,0.008329303003847599,0.005164135713130236,0.005514607764780521,0.2152862548828125,0.97161865234375,0.0829010009765625
19.68,0.010466755367815495,0.006066414527595043,0.00242134602740407,0.20947265625,0.970001220703125,0.0851898193359375
19.7,0.0009973538108170033,0.008077100850641727,-0.003270095447078347,0.206451416015625,0.9713897705078125,0.0895538330078125
19.72,-0.006015548016875982,0.0054637412540614605,-0.006710899528115988,0.2056732177734375,0.9747161865234375,0.0912933349609375
19.74,-0.010972755961120129,0.007907990366220474,-0.0036799560766667128,0.2081451416015625,0.97174072265625,0.08758544921875
19.76,-0.007197459228336811,0.007015032693743706,-0.0027593011036515236,0.208343505859375,0.9710235595703125,0.087188720703125
19.78,-0.003311907174065709,0.007445399183779955,-0.0031321437563747168,0.21063232421875,0.9713287353515625,0.0837860107421875
19.8,0.0017725999932736158,0.010850250720977783,0.00015206649550236762,0.211456298828125,0.9710693359375,0.0847320556640625
19.82,0.0035025894176214933,0.013941115699708462,0.004352936986833811,0.2130279541015625,0.97137451171875,0.0834503173828125
19.84,0.005027515348047018,0.005815544631332159,0.001698564155958593,0.2086029052734375,0.970306396484375,0.086090087890625
19.86,-0.001419198582880199,0.007096525281667709,-0.0027662254869937897,0.205596923828125,0.972991943359375,0.088043212890625
19.88,-0.009580189362168312,0.017539579421281815,-0.009671268984675407,0.2019805908203125,0.974212646484375,0.0908660888671875
19.9,-0.009614011272788048,0.010948787443339825,-0.016211461275815964,0.2031402587890625,0.9711151123046875,0.0880584716796875
19.92,-0.012438826262950897,0.00013369068619795144,-0.01380795706063509,0.2097930908203125,0.97265625,0.08770751953125
19.94,-0.00800093449652195,-0.0006711165769957006,-0.011175955645740032,0.2102508544921875,0.9693756103515625,0.087188720703125
19.96,-0.0009523464250378311,0.00509782275184989,-0.013493970967829227,0.2130889892578125,0.9718017578125,0.0838165283203125
19.98,0.004191282670944929,0.010160491801798344,-0.009886985644698143,0.21075439453125,0.9730377197265625,0.0845489501953125
20,-0.002317216480150819,0.02906068041920662,-0.004250671248883009,0.2137908935546875,0.971405029296875,0.08489990234375
20.02,0.0020730046089738607,0.032875124365091324,0.0028873991686850786,0.212493896484375,0.9724884033203125,0.0849151611328125
20.04,0.007416903506964445,0.036858148872852325,0.0018461032304912806,0.21112060546875,0.9698944091796875,0.0847015380859375
20.06,0.003784351982176304,0.03586505725979805,-0.0015824503498151898,0.2045745849609375,0.9716796875,0.0861358642578125
20.08,0.0015994944842532277,0.028872927650809288,-0.004313522018492222,0.2047576904296875,0.97174072265625,0.0875091552734375
20.1,-0.0046719834208488464,0.0226171612739563,-0.0030368026345968246,0.2075347900390625,0.97369384765625,0.0892486572265625
20.12,-0.009347961284220219,0.019508719444274902,-0.008673382923007011,0.2083740234375,0.97259521484375,0.08721923828125
20.14,-0.010742658749222755,0.022052038460969925,-0.005547098349779844,0.2082977294921875,0.97271728515625,0.084991455078125
20.16,0.0000876179983606562,0.020363062620162964,-0.0008364989189431071,0.208984375,0.972564697265625,0.0825653076171875
20.18,0.02009301818907261,0.012646286748349667,-0.00002103897168126423,0.210296630859375,0.97076416015625,0.0770111083984375
20.2,0.019410450011491776,0.02226828783750534,-0.0001102548703784123,0.2084808349609375,0.973907470703125,0.08062744140625
20.22,0.01239541731774807,0.019661584869027138,-0.0017973673529922962,0.2086029052734375,0.9737091064453125,0.0860443115234375
20.24,0.015030615031719208,-0.011041466146707535,-0.006868824828416109,0.2037506103515625,0.96954345703125,0.08782958984375
20.26,0.0036762275267392397,-0.03269056975841522,-0.00920361839234829,0.2040557861328125,0.969390869140625,0.089111328125
20.28,-0.009446765296161175,-0.027522703632712364,-0.012851882725954056,0.2049713134765625,0.974151611328125,0.0934295654296875
20.3,-0.010401774197816849,-0.016445819288492203,-0.011520568281412125,0.200286865234375,0.972564697265625,0.0937347412109375
20.32,-0.015973107889294624,0.007001450285315514,-0.010103234089910984,0.20294189453125,0.9736480712890625,0.09124755859375
20.34,-0.009730124846100807,0.026135729625821114,-0.007723167072981596,0.20416259765625,0.9743499755859375,0.0897979736328125
20.36,-0.004049602895975113,0.032350484281778336,-0.0021523667965084314,0.2068328857421875,0.9711761474609375,0.0870208740234375
20.38,-0.006866161711513996,0.033793915063142776,0.0009129316313192248,0.2078094482421875,0.970855712890625,0.0871124267578125
20.4,-0.00760998297482729,0.03014991246163845,0.00361683894880116,0.2084503173828125,0.97503662109375,0.08428955078125
20.42,0.0018303906545042992,0.007170561235398054,-0.0012229235144332051,0.2058563232421875,0.9737701416015625,0.082763671875
20.44,0.009643039666116238,-0.010929347015917301,-0.005539108533412218,0.203826904296875,0.9718017578125,0.083099365234375
20.46,-0.0002492718631401658,-0.008074704557657242,-0.003507649526000023,0.2044525146484375,0.97393798828125,0.0835113525390625
20.48,-0.002316950121894479,-0.0160660520195961,-0.0083660539239645,0.200775146484375,0.9764862060546875,0.0876312255859375
20.5,0.0019419770687818527,-0.015280152671039104,-0.010991930961608887,0.2001190185546875,0.972869873046875,0.0871734619140625
20.52,0.006420082412660122,-0.006359894759953022,-0.00993412360548973,0.1997833251953125,0.971710205078125,0.0871734619140625
20.54,0.0019632822368294,0.009104016236960888,-0.016717461869120598,0.1976470947265625,0.9727020263671875,0.087554931640625
20.56,-0.00012889699428342283,0.0029342707712203264,-0.011785020120441914,0.2023468017578125,0.973419189453125,0.0898284912109375
20.58,-0.003840810852125287,0.0012029499048367143,-0.0022306637838482857,0.2097930908203125,0.972747802734375,0.0908660888671875
20.6,-0.01028379611670971,0.015782957896590233,0.0027944548055529594,0.2100067138671875,0.9728240966796875,0.0904388427734375
20.62,-0.004640291910618544,0.02804255299270153,0.0070070428773760796,0.2077789306640625,0.97308349609375,0.0896148681640625
20.64,-0.0025806031189858913,0.050442133098840714,0.007997472770512104,0.2038421630859375,0.97198486328125,0.0858154296875
20.66,0.003519367426633835,0.04909670725464821,0.0076392777264118195,0.2009124755859375,0.97412109375,0.0857696533203125
20.68,0.0014444985426962376,0.030585339292883873,0.001639441936276853,0.19842529296875,0.974639892578125,0.0848541259765625
20.7,-0.003466104157269001,0.01209687627851963,-0.0030418625101447105,0.1981201171875,0.975250244140625,0.0883026123046875
20.72,0.0012237224727869034,-0.012437228113412857,-0.005576925817877054,0.19921875,0.97125244140625,0.089141845703125
20.74,0.0009800433181226254,-0.006148706190288067,-0.007636880502104759,0.1994171142578125,0.9741668701171875,0.08673095703125
20.76,0.0026908579748123884,0.00592553336173296,-0.007994542829692364,0.1993255615234375,0.9738616943359375,0.0884246826171875
20.78,0.007440872024744749,0.009560748003423214,-0.004542820155620575,0.202606201171875,0.9723052978515625,0.0865478515625
20.8,0.012448414228856564,0.010874751955270767,-0.004781705792993307,0.20587158203125,0.97283935546875,0.086822509765625
20.82,0.006399842444807291,0.011698467656970024,0.0016852483386173844,0.2067413330078125,0.972259521484375,0.088043212890625
20.84,0.0046301716938614845,0.010330934077501297,0.004786232952028513,0.2069091796875,0.97344970703125,0.091064453125
20.86,0.0015901734586805105,0.007406517397612333,0.006445914972573519,0.204010009765625,0.971588134765625,0.0915679931640625
20.88,-0.0011254518758505583,0.017833326011896133,0.004292749334126711,0.2000885009765625,0.9703369140625,0.0923309326171875
20.9,-0.0075516593642532825,0.042704854160547256,-0.002376604825258255,0.1968994140625,0.9759979248046875,0.09283447265625
20.92,-0.003796336008235812,0.03977484256029129,0.0006799050024710596,0.1966552734375,0.973602294921875,0.0889129638671875
20.94,-0.0007829693495295942,0.027954403311014175,-0.0005456816870719194,0.206146240234375,0.9737091064453125,0.086029052734375
20.96,-0.001008805469609797,0.017642909660935402,0.00535375252366066,0.2060546875,0.9721527099609375,0.08526611328125
20.98,0.00022929816623218358,0.006439789664000273,0.003424825146794319,0.2047119140625,0.9720001220703125,0.085479736328125
21,0.006539658177644014,-0.009919475764036179,-0.0011169298086315393,0.20587158203125,0.97076416015625,0.0843353271484375
21.02,0.0032559807877987623,-0.01061988715082407,-0.000666322885081172,0.20294189453125,0.9736328125,0.0860748291015625
21.04,0.00007110639853635803,-0.001591505017131567,0.0001978728687390685,0.2017669677734375,0.9755096435546875,0.0868988037109375
21.06,0.002310824813321233,0.0032839439809322357,0.0015595471486449242,0.2021026611328125,0.97332763671875,0.0888519287109375
21.08,0.005506617948412895,0.011697135865688324,0.004489024169743061,0.2038726806640625,0.973114013671875,0.0870819091796875
21.1,0.0057226005010306835,0.01607137732207775,0.00009960222087102011,0.2020263671875,0.973968505859375,0.087921142578125
21.12,0.009408148936927319,0.008794024586677551,-0.0013568805297836661,0.1980743408203125,0.9711761474609375,0.089630126953125
21.14,-0.004793690051883459,0.006087986286729574,-0.008237689733505249,0.19989013671875,0.9730377197265625,0.0908966064453125
21.16,-0.012267052195966244,-0.019755594432353973,-0.005803560372442007,0.2012786865234375,0.9734649658203125,0.092864990234375
21.18,-0.01320901233702898,-0.013349627144634724,0.001886317040771246,0.2086029052734375,0.97283935546875,0.090087890625
21.2,-0.007245928514748812,0.011098723858594894,0.007244330830872059,0.208831787109375,0.9736480712890625,0.086334228515625
21.22,0.006373477168381214,0.024502946063876152,0.011602327227592468,0.206787109375,0.9716949462890625,0.084228515625
21.24,0.004463724326342344,0.037287451326847076,0.006675745826214552,0.2012176513671875,0.9727325439453125,0.08416748046875
21.26,0.0006034722900949419,0.016624249517917633,-0.0016130766598507762,0.1988983154296875,0.9739837646484375,0.088226318359375
21.28,-0.0065465825609862804,-0.01452807616442442,-0.0015627428656443954,0.19793701171875,0.9741363525390625,0.090576171875
21.3,-0.011695804074406624,-0.017191236838698387,-0.001398425898514688,0.2043609619140625,0.975433349609375,0.0899810791015625
21.32,-0.003643736941739917,-0.013654027134180069,0.003486876841634512,0.2047271728515625,0.9721832275390625,0.088043212890625
21.34,0.006388923618942499,0.0014285196084529161,0.0030242856591939926,0.2033233642578125,0.9729156494140625,0.08575439453125
21.36,0.010609767399728298,0.015309980139136314,0.0007954862085171044,0.19921875,0.97357177734375,0.0869140625
21.38,0.005084240809082985,0.012206599116325378,-0.0015515576815232635,0.1992340087890625,0.9724884033203125,0.0897216796875
21.4,-0.0020623519085347652,0.003425091505050659,-0.004373443312942982,0.2002716064453125,0.9743804931640625,0.09295654296875
21.42,-0.008790828287601471,-0.007213437929749489,-0.0013614079216495156,0.20263671875,0.97503662109375,0.09320068359375
21.44,-0.0064962487667799,-0.0024714134633541107,0.006724747829139233,0.2040252685546875,0.9701080322265625,0.0900115966796875
21.46,-0.005601426586508751,0.022551914677023888,0.009937318973243237,0.206878662109375,0.9735260009765625,0.0881500244140625
21.48,0.004554538056254387,0.0370674729347229,0.012313657440245152,0.2028961181640625,0.973785400390625,0.0863037109375
21.5,0.008435828611254692,0.04123452305793762,0.006591057404875755,0.201324462890625,0.9740142822265625,0.0846405029296875
21.52,0.009747701697051525,0.022952720522880554,0.0059625511057674885,0.1993560791015625,0.9731292724609375,0.0865478515625
21.54,0.005556153133511543,0.007568703964352608,0.004114849958568811,0.2047271728515625,0.9738311767578125,0.0883331298828125
21.56,-0.0016583503456786275,-0.005432316102087498,0.0057188719511032104,0.2049407958984375,0.9727783203125,0.0883636474609375
21.58,0.00640729907900095,-0.018497250974178314,0.004426972474902868,0.2053985595703125,0.9729766845703125,0.0870361328125
21.6,0.008933041244745255,-0.019625365734100342,0.0033278861083090305,0.2052459716796875,0.97198486328125,0.0857696533203125
21.62,0.005430984310805798,-0.006174272391945124,0.0032842103391885757,0.204315185546875,0.9731597900390625,0.088287353515625
21.64,0.007561513222754002,0.0033622407354414463,0.006941795814782381,0.2038726806640625,0.97296142578125,0.0899200439453125
21.66,0.008506668731570244,0.008354602381587029,0.0028964539524167776,0.202728271484375,0.97393798828125,0.0899505615234375
21.68,0.006047772243618965,0.011753329075872898,-0.003239469137042761,0.1985321044921875,0.9720458984375,0.092742919921875
21.7,-0.00008442220860160887,0.0032591766212135553,-0.0029798108153045177,0.2003631591796875,0.972686767578125,0.0912933349609375
21.72,-0.002120675053447485,-0.009266202338039875,0.004250671248883009,0.2071533203125,0.9712982177734375,0.0906524658203125
21.74,-0.00854688324034214,-0.014229536056518555,0.007573231123387814,0.2103729248046875,0.970001220703125,0.0887603759765625
21.76,0.00018988338706549257,-0.011581288650631905,0.012380769476294518,0.2115325927734375,0.97161865234375,0.0889739990234375
21.78,0.003483414649963379,0.003447728231549263,0.015546202659606934,0.207275390625,0.971832275390625,0.0847320556640625
21.8,0.0035148400347679853,0.02040008082985878,0.01762613095343113,0.20452880859375,0.9736480712890625,0.08538818359375
21.82,0.008958874270319939,0.01327159721404314,0.014027401804924011,0.2042236328125,0.97418212890625,0.084716796875
21.84,0.008980179205536842,-0.005595567636191845,0.006351372692734003,0.2003631591796875,0.9703369140625,0.08563232421875
21.86,0.006820355542004108,-0.0178796648979187,0.002490321872755885,0.2022857666015625,0.9736175537109375,0.0865020751953125
21.88,0.009954629465937614,-0.044618867337703705,0.005370264407247305,0.2061614990234375,0.9719696044921875,0.0858001708984375
21.9,0.00814980547875166,-0.039690952748060226,0.011563978157937527,0.20611572265625,0.9730377197265625,0.0860443115234375
21.92,0.0009941579774022102,-0.012251872569322586,0.009765544906258583,0.204345703125,0.971527099609375,0.0882110595703125
21.94,0.007889614440500736,-0.004208327271044254,0.008598548360168934,0.202484130859375,0.9741058349609375,0.08868408203125
21.96,0.008901881985366344,-0.004945490043610334,0.0018703379901126027,0.1992034912109375,0.9696197509765625,0.0893707275390625
21.98,-0.00133877107873559,-0.011127485893666744,0.009594304487109184,0.2024993896484375,0.974822998046875,0.0907135009765625
22,-0.012563728727400303,-0.012980779632925987,0.01191018894314766,0.2081298828125,0.9748687744140625,0.0898895263671875
22.02,-0.0044165863655507565,-0.021195832639932632,0.009430252946913242,0.203857421875,0.97113037109375,0.08837890625
22.04,0.005417935084551573,-0.011563445441424847,0.015970444306731224,0.2053375244140625,0.971160888671875,0.082366943359375
22.06,-0.002192314248532057,0.025183916091918945,0.01170166302472353,0.2042083740234375,0.976715087890625,0.0818634033203125
22.08,0.015857527032494545,0.0015712650492787361,0.005835785064846277,0.201202392578125,0.969818115234375,0.08477783203125
22.1,0.01395975798368454,-0.006552175153046846,0.004847485572099686,0.2051849365234375,0.976837158203125,0.083251953125
22.12,-0.00021491710504051298,-0.017107080668210983,0.009456618689000607,0.208465576171875,0.9717254638671875,0.086181640625
22.14,0.008136489428579807,-0.044059868901968,0.005685582756996155,0.208892822265625,0.9696502685546875,0.0845184326171875
22.16,0.004159591160714626,-0.03620327636599541,0.0075849490240216255,0.2101593017578125,0.9735870361328125,0.0859527587890625
22.18,0.005083708092570305,-0.02594318427145481,0.013579191640019417,0.2094573974609375,0.97186279296875,0.085174560546875
22.2,-0.00020213393145240843,0.00010066748654935509,0.013964551500976086,0.2066650390625,0.9715576171875,0.0854339599609375
22.22,0.0025473134592175484,0.0024983114562928677,0.013060408644378185,0.203704833984375,0.9733428955078125,0.0867767333984375
22.24,0.004866660572588444,-0.005923136603087187,0.011933624744415283,0.2050018310546875,0.974151611328125,0.085357666015625
22.26,0.011454788036644459,-0.026105636730790138,0.008163387887179852,0.20489501953125,0.971038818359375,0.084320068359375
22.28,0.014858041889965534,-0.04224732145667076,0.009318932890892029,0.2064208984375,0.971435546875,0.0857086181640625
22.3,0.00971254799515009,-0.0407269224524498,0.009215602651238441,0.2056121826171875,0.9720916748046875,0.0858306884765625
22.32,0.021450163796544075,-0.0470452718436718,0.0046576024033129215,0.20281982421875,0.9691162109375,0.0868682861328125
22.34,0.034567564725875854,-0.06065322831273079,-0.004507133737206459,0.2011871337890625,0.9699249267578125,0.08441162109375
22.36,0.04204092547297478,-0.08228608220815659,0.0008503473363816738,0.2065887451171875,0.9714508056640625,0.0875701904296875
22.38,0.061344049870967865,-0.11674126237630844,0.009558884426951408,0.2113189697265625,0.971923828125,0.0877227783203125
22.4,0.0723772644996643,-0.1301417499780655,0.03127403184771538,0.21221923828125,0.9772491455078125,0.0890655517578125
22.42,0.07875686138868332,-0.11682994663715363,0.059120845049619675,0.2078704833984375,0.9813690185546875,0.0907745361328125
22.44,0.09324871748685837,-0.07715923339128494,0.05986546352505684,0.1964263916015625,0.96881103515625,0.0919036865234375
22.46,0.11862118542194366,-0.03308072313666344,0.04934198409318924,0.1820831298828125,0.9669647216796875,0.0964508056640625
22.48,0.14303891360759735,0.0016415724530816078,0.0422864705324173,0.1697998046875,0.9779510498046875,0.101654052734375
22.5,0.15001080930233002,0.021642178297042847,0.037689853459596634,0.1620635986328125,0.98748779296875,0.1109161376953125
22.52,0.14279763400554657,0.051590755581855774,0.013641776517033577,0.147979736328125,0.975921630859375,0.1202239990234375
22.54,0.12612225115299225,0.06419123709201813,-0.010790063068270683,0.1378021240234375,0.9792327880859375,0.1266937255859375
22.56,0.11382696777582169,0.04965756833553314,-0.0459698885679245,0.1328582763671875,0.9827880859375,0.1331939697265625
22.58,0.09406950324773788,0.03917350247502327,-0.06955937296152115,0.128875732421875,0.9813995361328125,0.1378173828125
22.6,0.08632290363311768,0.05417855083942413,-0.08551197499036789,0.1293792724609375,0.97467041015625,0.1360321044921875
22.62,0.08953867107629776,0.07789932191371918,-0.1133827492594719,0.1317138671875,0.9782867431640625,0.134674072265625
22.64,0.0767270028591156,0.13716956973075867,-0.1168922632932663,0.1307373046875,0.97412109375,0.1316986083984375
22.66,0.04337144270539284,0.24100089073181152,-0.09807516634464264,0.126922607421875,0.9568328857421875,0.13116455078125
22.68,0.022539131343364716,0.36814045906066895,-0.07563723623752594,0.123443603515625,0.9473724365234375,0.129486083984375
22.7,0.004717523697763681,0.44554710388183594,-0.04619332775473595,0.122955322265625,0.9757537841796875,0.1315460205078125
22.72,-0.00526720006018877,0.4715923070907593,-0.0245458222925663,0.11627197265625,0.98577880859375,0.1403961181640625
22.74,-0.002335592173039913,0.4624587297439575,-0.029254024848341942,0.10552978515625,0.97332763671875,0.141510009765625
22.76,-0.01537549402564764,0.4027461111545563,-0.03755083680152893,0.096771240234375,0.952301025390625,0.146575927734375
22.78,-0.05374632030725479,0.3085961937904358,-0.05453088507056236,0.092071533203125,0.9497222900390625,0.159454345703125
22.8,-0.1265033483505249,0.245222270488739,-0.09204177558422089,0.085693359375,0.942352294921875,0.174713134765625
22.82,-0.21365715563297272,0.23194880783557892,-0.11967819929122925,0.080322265625,0.9445343017578125,0.186767578125
22.84,-0.2787408232688904,0.3132726848125458,-0.19592103362083435,0.0846405029296875,0.953460693359375,0.185882568359375
22.86,-0.34552597999572754,0.4337005615234375,-0.26171788573265076,0.0868682861328125,0.968963623046875,0.1854705810546875
22.88,-0.39301812648773193,0.5388613343238831,-0.21391788125038147,0.11553955078125,0.9677886962890625,0.1741180419921875
22.9,-0.03367993235588074,0.8890683650970459,-0.009739712812006474,0.150146484375,0.962158203125,0.153167724609375
22.92,1.131592869758606,1.9808869361877441,0.2909063994884491,0.2545623779296875,0.9720306396484375,-0.1212005615234375
22.94,1.0119357109069824,2.018932580947876,0.023688551038503647,0.341156005859375,1.011016845703125,-0.40472412109375
22.96,-0.15044675767421722,1.0163538455963135,-0.351174533367157,0.2097625732421875,0.9774627685546875,0.10101318359375
22.98,-0.5297703742980957,-0.41611918807029724,-0.028071582317352295,0.293548583984375,1.013214111328125,0.297088623046875
23,0.02431066520512104,-0.782221794128418,0.23344257473945618,0.46136474609375,1.0101318359375,0.0200958251953125
23.02,0.17832712829113007,-0.7392871379852295,0.13050687313079834,0.4361114501953125,0.9627532958984375,-0.1822357177734375
23.04,-0.09685197472572327,-0.5863772034645081,0.04005500674247742,0.347991943359375,0.9858245849609375,0.02587890625
23.06,-0.2552639842033386,-0.33672529458999634,0.19531942903995514,0.33880615234375,1.050994873046875,0.135467529296875
23.08,-0.10567077249288559,0.007185474969446659,0.33101174235343933,0.3483428955078125,0.9755859375,0.082550048828125
23.1,0.09304099529981613,0.1936461627483368,0.27567365765571594,0.2309417724609375,0.8966064453125,0.0071258544921875
23.12,0.23087023198604584,0.25024232268333435,0.03766988217830658,0.14837646484375,0.9405517578125,-0.0017242431640625
23.14,0.24013829231262207,0.11696603149175644,0.053045641630887985,0.1647491455078125,1.069580078125,-0.022064208984375
23.16,0.19676978886127472,-0.021890118718147278,0.36918842792510986,0.30126953125,1.0587921142578125,-0.0158233642578125
23.18,0.12148195505142212,0.038410771638154984,0.44517961144447327,0.3307647705078125,0.918853759765625,-0.0156097412109375
23.2,-0.07248938083648682,0.12007181346416473,0.22164584696292877,0.1950531005859375,0.888397216796875,0.0191192626953125
23.22,-0.09856119751930237,0.11972799897193909,-0.009893643669784069,0.17840576171875,0.9791717529296875,0.0756072998046875
23.24,0.03870638459920883,-0.00729493098333478,0.1588732749223709,0.26507568359375,1.0509490966796875,0.05010986328125
23.26,0.052570000290870667,-0.014003966003656387,0.3660147488117218,0.3982391357421875,0.96343994140625,0.0198974609375
23.28,0.011226288974285126,0.11251669377088547,0.2210756540298462,0.345855712890625,0.8492584228515625,0.0623626708984375
23.3,0.026151709258556366,0.16555461287498474,0.004501807503402233,0.224365234375,0.858184814453125,0.052642822265625
23.32,0.0583069808781147,0.1428905725479126,0.056588444858789444,0.1924591064453125,1.008819580078125,0.0196685791015625
23.34,0.030943801626563072,0.058696601539850235,0.29410725831985474,0.2676239013671875,1.13531494140625,0.0147857666015625
23.36,-0.11074888706207275,0.020312728360295296,0.2790404260158539,0.29852294921875,1.0370330810546875,0.0174102783203125
23.38,-0.21677544713020325,0.1457609236240387,-0.09983072429895401,0.151702880859375,0.848388671875,0.0484161376953125
23.4,-0.21424145996570587,0.16443102061748505,-0.3728015422821045,0.0417022705078125,0.8645782470703125,0.0448150634765625
23.42,-0.09287747740745544,0.0631701797246933,-0.2597855031490326,0.148712158203125,0.9932861328125,0.0745697021484375
23.44,0.049841590225696564,-0.03148708492517471,-0.07363187521696091,0.3167877197265625,1.0540313720703125,0.043792724609375
23.46,0.018987007439136505,-0.03898122161626816,-0.03188150003552437,0.3865966796875,1.0119171142578125,0.0253753662109375
23.48,-0.1482376754283905,0.04819922149181366,0.07924981415271759,0.37890625,0.9302978515625,0.0672149658203125
23.5,-0.19099578261375427,0.21239374577999115,-0.01107289083302021,0.314788818359375,0.90234375,0.0757904052734375
23.52,-0.07275782525539398,0.1941625475883484,-0.06474890559911728,0.1757354736328125,0.9381561279296875,0.0446014404296875
23.54,-0.015401060692965984,-0.06596995890140533,-0.024115722626447678,0.1610870361328125,1.0167694091796875,0.0261383056640625
23.56,-0.045641519129276276,-0.12322978675365448,-0.06166549399495125,0.213623046875,1.026397705078125,0.070892333984375
23.58,-0.12811268866062164,-0.13196469843387604,-0.08345228433609009,0.2450103759765625,0.9756927490234375,0.0693206787109375
23.6,-0.13114656507968903,-0.11429514735937119,-0.07295543700456619,0.27642822265625,0.9251251220703125,0.0975799560546875
23.62,-0.07593497633934021,-0.013043097220361233,-0.08260300010442734,0.2376251220703125,0.9418487548828125,0.10595703125
23.64,-0.04103079065680504,0.008035821840167046,-0.0685870498418808,0.2145538330078125,0.9670257568359375,0.1099853515625
23.66,-0.04754967615008354,-0.02413196861743927,-0.08857886493206024,0.2222900390625,0.989288330078125,0.1153564453125
23.68,-0.12515471875667572,-0.06511908024549484,-0.18104435503482819,0.2039947509765625,0.9871673583984375,0.0974578857421875
23.7,-0.19088126718997955,-0.11976847797632217,-0.19204586744308472,0.18426513671875,1.00579833984375,0.117950439453125
23.72,-0.18855127692222595,-0.1462714523077011,-0.13568219542503357,0.1808013916015625,1.0028228759765625,0.1319122314453125
23.74,-0.11664725095033646,-0.044916875660419464,-0.10431841760873795,0.1759796142578125,0.958251953125,0.146026611328125
23.76,-0.0635874941945076,0.11020613461732864,-0.054071225225925446,0.1956634521484375,0.94024658203125,0.13134765625
23.78,-0.058284346014261246,0.09715291112661362,-0.02281077392399311,0.269012451171875,0.94842529296875,0.133270263671875
23.8,-0.05461584031581879,0.025464346632361412,-0.010282198898494244,0.2967681884765625,0.9852447509765625,0.1370086669921875
23.82,-0.06470682471990585,-0.06509803980588913,0.007774033583700657,0.2782745361328125,1.030426025390625,0.1200408935546875
23.84,-0.0814402624964714,-0.1413254290819168,-0.07403986901044846,0.201873779296875,0.960845947265625,0.11383056640625
23.86,-0.08920284360647202,-0.1462264508008957,-0.15835022926330566,0.1092987060546875,0.920135498046875,0.113433837890625
23.88,-0.07434134185314178,-0.07016763836145401,-0.17867892980575562,0.0932159423828125,0.936248779296875,0.1373138427734375
23.9,-0.06028677523136139,0.009253419004380703,-0.1599462628364563,0.127532958984375,0.9580841064453125,0.139251708984375
23.92,-0.06117707118391991,0.02816665731370449,-0.1627039611339569,0.1725921630859375,0.9822235107421875,0.1360321044921875
23.94,-0.07473842054605484,-0.051186222583055496,-0.15488305687904358,0.197235107421875,0.9775238037109375,0.1211090087890625
23.96,-0.07742767781019211,-0.12504500150680542,-0.14824272692203522,0.2268218994140625,0.9736785888671875,0.1040496826171875
23.98,-0.12181005626916885,-0.14136351644992828,-0.15592381358146667,0.2409210205078125,0.97601318359375,0.106353759765625
24,-0.11398062855005264,-0.12077861279249191,-0.13714027404785156,0.2343597412109375,0.984954833984375,0.1262969970703125
24.02,-0.081889808177948,-0.10823805630207062,-0.08974426984786987,0.230010986328125,0.9948577880859375,0.12408447265625
24.04,-0.0602705292403698,-0.042873430997133255,-0.05320329964160919,0.2158203125,0.994293212890625,0.1311187744140625
24.06,-0.058400724083185196,-0.0005688511882908642,-0.06147854030132294,0.1886138916015625,0.98486328125,0.1270599365234375
24.08,-0.056765809655189514,0.005927930120378733,-0.059775982052087784,0.169891357421875,0.977874755859375,0.1220550537109375
24.1,-0.038305312395095825,0.0399431549012661,-0.0504157692193985,0.1753082275390625,0.9754791259765625,0.118896484375
24.12,-0.023062441498041153,0.06888026744127274,-0.04568546265363693,0.18048095703125,0.977569580078125,0.1265716552734375
24.14,-0.04005980119109154,0.04363003373146057,0.0032810145057737827,0.17547607421875,0.9921112060546875,0.148590087890625
24.16,-0.020600616931915283,0.02479429543018341,-0.0181659534573555,0.148284912109375,0.9891204833984375,0.1412200927734375
24.18,-0.01949780061841011,-0.01858540251851082,-0.03743818402290344,0.1364898681640625,0.96417236328125,0.12164306640625
24.2,-0.051298342645168304,-0.0756731927394867,-0.05435112118721008,0.1613006591796875,0.9688720703125,0.1204986572265625
24.22,-0.06421946734189987,-0.11797617375850677,-0.04530303180217743,0.180938720703125,1.0030364990234375,0.1218414306640625
24.24,-0.05196945741772652,-0.10273090749979019,-0.03244262933731079,0.193084716796875,0.9638671875,0.1358795166015625
24.26,-0.026823358610272408,-0.044491566717624664,-0.017858359962701797,0.1856536865234375,0.95489501953125,0.1436309814453125
24.28,-0.026625219732522964,0.009271528571844101,-0.0016666061710566282,0.1775970458984375,0.9706878662109375,0.1352996826171875
24.3,-0.06667037308216095,-0.019890617579221725,-0.021392107009887695,0.1703338623046875,0.9837799072265625,0.1231536865234375
24.32,-0.028028437867760658,-0.0317550003528595,-0.015791479498147964,0.14886474609375,0.9708709716796875,0.136749267578125
24.34,-0.01600746251642704,-0.04779282212257385,-0.03291081264615059,0.1485748291015625,0.9861602783203125,0.1174468994140625
24.36,0.004162520635873079,-0.025242239236831665,-0.03579261898994446,0.13836669921875,0.9517059326171875,0.14495849609375
24.38,0.0018287927377969027,0.09440825879573822,-0.014420217834413052,0.15283203125,0.9842681884765625,0.14501953125
24.4,0.023561518639326096,0.20372968912124634,0.03057308867573738,0.177032470703125,0.979705810546875,0.136322021484375
24.42,-0.006022472400218248,0.13991396129131317,0.025976473465561867,0.1753692626953125,0.964385986328125,0.1597137451171875
24.44,-0.017418671399354935,0.061291322112083435,0.01130991242825985,0.165283203125,0.9700927734375,0.1511383056640625
24.46,-0.02618499845266342,-0.01649588532745838,-0.0159510038793087,0.153350830078125,0.9733123779296875,0.1595611572265625
24.48,-0.03231026977300644,-0.12833507359027863,-0.03803100436925888,0.130035400390625,0.9760894775390625,0.1565704345703125
24.5,-0.0029976540245115757,-0.11708854138851166,-0.05610215291380882,0.1299591064453125,0.9603118896484375,0.1583251953125
24.52,0.04664446786046028,0.025255288928747177,-0.04767191410064697,0.137664794921875,0.9771881103515625,0.1390380859375
24.54,0.01780189946293831,0.06239892914891243,-0.03809172660112381,0.1604156494140625,1.000396728515625,0.1074676513671875
24.56,0.018822956830263138,0.05471091717481613,-0.017621604725718498,0.175445556640625,0.960174560546875,0.144775390625
24.58,0.005163336638361216,0.07231201231479645,-0.0036336169578135014,0.18585205078125,0.9914093017578125,0.1116943359375
24.6,0.004658667836338282,0.09741683304309845,0.003102316288277507,0.1727447509765625,0.96795654296875,0.155242919921875
24.62,-0.007232879288494587,0.03273717314004898,0.00054142065346241,0.1661224365234375,0.959625244140625,0.1545867919921875
24.64,0.0190727598965168,0.013644439168274403,-0.004865328781306744,0.1566925048828125,0.9735565185546875,0.1552276611328125
24.66,0.09769726544618607,0.12208782881498337,0.012586099095642567,0.1514129638671875,0.98309326171875,0.1319427490234375
24.68,0.051359593868255615,0.07582765072584152,0.01943921111524105,0.1533966064453125,0.9983673095703125,0.10821533203125
24.7,0.06879904121160507,0.13757596909999847,0.023512782528996468,0.2017822265625,0.973052978515625,0.1262359619140625
24.72,0.07784659415483475,0.18541140854358673,0.03910266235470772,0.1914215087890625,0.9968109130859375,0.107879638671875
24.74,0.0754055380821228,0.24291731417179108,0.05853734537959099,0.163848876953125,1.0029449462890625,0.1254730224609375
24.76,0.07296422123908997,0.26681625843048096,0.03948482498526573,0.1424407958984375,0.96453857421875,0.1360321044921875
24.78,0.08041495084762573,0.14420831203460693,-0.021506357938051224,0.118408203125,0.95166015625,0.15606689453125
24.8,0.0926431193947792,0.022044582292437553,-0.042874228209257126,0.1126251220703125,0.9662628173828125,0.1617584228515625
24.82,0.07347847521305084,0.10062168538570404,-0.015842346474528313,0.1514739990234375,0.965301513671875,0.1538848876953125
24.84,0.05393407121300697,0.11502406001091003,-0.007803594693541527,0.203369140625,0.9646453857421875,0.1414642333984375
24.86,0.039987362921237946,0.01570572517812252,0.008509865030646324,0.2199554443359375,0.974517822265625,0.136199951171875
24.88,0.0226224884390831,0.0405636727809906,0.05203630402684212,0.2191162109375,0.980926513671875,0.1320037841796875
24.9,-0.020742563530802727,0.03822967782616615,0.06199519336223602,0.1810302734375,0.9707794189453125,0.1396636962890625
24.92,-0.04717976227402687,-0.009386577643454075,0.051056526601314545,0.14117431640625,0.9622802734375,0.1606597900390625
24.94,-0.035598207265138626,0.0012863067677244544,0.016329172998666763,0.1187744140625,0.956390380859375,0.155548095703125
24.96,-0.003772101365029812,-0.04158872365951538,-0.04111228138208389,0.103240966796875,0.9592132568359375,0.143157958984375
24.98,0.018029334023594856,-0.027180222794413567,-0.04138312488794327,0.0941925048828125,0.975189208984375,0.1295166015625
25,0.04114317521452904,-0.008236091583967209,-0.06230012699961662,0.13970947265625,0.9781341552734375,0.1090850830078125
25.02,0.004538292996585369,-0.15267662703990936,-0.08006474375724792,0.162933349609375,1.0156097412109375,0.093109130859375
25.04,-0.06484823673963547,-0.05492796376347542,0.017118265852332115,0.195526123046875,0.996826171875,0.1020050048828125
25.06,0.05219263210892677,0.2864197790622711,0.057678744196891785,0.2368011474609375,0.915985107421875,0.13568115234375
25.08,0.08200432360172272,0.3172514736652374,0.0821571871638298,0.1469879150390625,0.97528076171875,0.1305694580078125
25.1,-0.031622909009456635,0.04457412660121918,0.0065047708339989185,0.1295166015625,0.993988037109375,0.1407012939453125
25.12,-0.01010829396545887,-0.11971015483140945,0.006785734556615353,0.1498565673828125,0.9944000244140625,0.1348876953125
25.14,0.016097743064165115,-0.042283009737730026,-0.01474485732614994,0.1836395263671875,0.9762115478515625,0.116546630859375
25.16,0.08582969009876251,0.14296726882457733,0.018397117033600807,0.194000244140625,0.9467010498046875,0.14251708984375
25.18,0.054059505462646484,0.21232956647872925,0.03632897883653641,0.1646575927734375,0.988372802734375,0.10113525390625
25.2,0.025189509615302086,0.12100791186094284,0.05493329092860222,0.1612396240234375,0.989501953125,0.110870361328125
25.22,0.03562936559319496,0.00010412959818495438,0.0009896307019516826,0.1916656494140625,0.9882049560546875,0.111785888671875
25.24,0.01775342971086502,-0.05590640753507614,-0.009354352951049805,0.1587677001953125,1.0000762939453125,0.1161956787109375
25.26,0.046475622802972794,-0.03724031150341034,-0.024571122601628304,0.15985107421875,0.9860992431640625,0.140411376953125
25.28,0.08996850252151489,0.0751674547791481,-0.017195498570799828,0.1722259521484375,0.973052978515625,0.1273193359375
25.3,0.08824943751096725,0.016682572662830353,0.000963797967415303,0.1705322265625,0.9602203369140625,0.1125030517578125
25.32,-0.012016715481877327,-0.061402905732393265,0.03862142935395241,0.1765594482421875,0.975433349609375,0.1178131103515625
25.34,-0.0762079507112503,-0.05760230869054794,0.04918086156249046,0.17620849609375,0.9607391357421875,0.1517181396484375
25.36,-0.053996387869119644,0.007483482826501131,0.02719114162027836,0.14666748046875,0.962432861328125,0.16888427734375
25.38,0.012747753411531448,0.06649167835712433,-0.025835858657956123,0.1006317138671875,0.966522216796875,0.1645050048828125
25.4,0.06238561496138573,0.02401425689458847,-0.04669906198978424,0.07305908203125,0.9675140380859375,0.1234283447265625
25.42,0.01806022599339485,0.01919766329228878,-0.030980020761489868,0.111328125,0.9566192626953125,0.0797271728515625
25.44,-0.04416772723197937,0.01896383799612522,-0.003686613868921995,0.1709136962890625,0.982269287109375,0.08587646484375
25.46,-0.035055987536907196,-0.03009158931672573,-0.031315844506025314,0.2003936767578125,0.9957733154296875,0.1159515380859375
25.48,-0.024235298857092857,-0.10628942400217056,-0.023333018645644188,0.16094970703125,1.0035247802734375,0.13836669921875
25.5,-0.020978517830371857,0.07716429233551025,0.03726241737604141,0.146240234375,0.963897705078125,0.1421356201171875
25.52,0.0527937076985836,0.21577037870883942,0.037695180624723434,0.1640167236328125,0.9254302978515625,0.1359405517578125
25.54,0.011891813017427921,0.08260885626077652,0.03308125585317612,0.1468505859375,0.9706878662109375,0.1178131103515625
25.56,-0.053097572177648544,-0.01497921533882618,0.021793445572257042,0.167205810546875,0.9981231689453125,0.1200408935546875
25.58,-0.024216655641794205,-0.08211351186037064,0.01985493116080761,0.18109130859375,1.0073394775390625,0.1128082275390625
25.6,0.012292352505028248,0.13396339118480682,0.052628058940172195,0.1600189208984375,0.9725189208984375,0.124969482421875
25.62,0.08441741019487381,0.23603036999702454,0.030348051339387894,0.162628173828125,0.9706268310546875,0.1278533935546875
25.64,0.03622058779001236,0.19126610457897186,0.042689673602581024,0.1232147216796875,1.014404296875,0.091339111328125
25.66,0.03198855742812157,0.1030731201171875,0.005367601290345192,0.1553955078125,1.0053253173828125,0.1036834716796875
25.68,0.06900782883167267,0.011580223217606544,-0.014311827719211578,0.1904296875,0.9984283447265625,0.0908355712890625
25.7,0.07899228483438492,-0.06472013890743256,-0.03406209498643875,0.2030181884765625,0.991424560546875,0.114471435546875
25.72,0.08128899335861206,-0.0517691895365715,-0.00515827676281333,0.18634033203125,0.99090576171875,0.1432342529296875
25.74,0.10445503890514374,-0.005377454683184624,0.013190902769565582,0.2042083740234375,0.9634246826171875,0.1380462646484375
25.76,0.05255508795380592,-0.03851170465350151,0.041002027690410614,0.1898193359375,0.9877166748046875,0.1037445068359375
25.78,-0.004834702704101801,-0.12222418189048767,0.0189603753387928,0.1861114501953125,0.96441650390625,0.11224365234375
25.8,-0.000018908443962573074,-0.17621950805187225,0.03765523433685303,0.1742401123046875,0.97149658203125,0.1336822509765625
25.82,0.029705431312322617,-0.053279999643564224,0.010595918633043766,0.1533050537109375,0.9716796875,0.13995361328125
25.84,0.08312071859836578,0.07728679478168488,-0.06643468141555786,0.10394287109375,0.9691009521484375,0.1153411865234375
25.86,0.14647546410560608,0.08654900640249252,-0.08540118485689163,0.1074981689453125,0.984375,0.0747222900390625
25.88,0.12075570970773697,0.02364487573504448,0.00526720006018877,0.1830291748046875,1.0118560791015625,0.06939697265625
25.9,0.0474545992910862,-0.03430710732936859,0.05173403397202492,0.256744384765625,1.0073699951171875,0.0810089111328125
25.92,0.013420733623206615,-0.19481129944324493,0.052971869707107544,0.2639312744140625,0.9942474365234375,0.0864410400390625
25.94,0.0030362699180841446,-0.38014280796051025,0.026634806767106056,0.23785400390625,1.015411376953125,0.102996826171875
25.96,-0.007673898711800575,-0.40975475311279297,0.013422864489257336,0.2104644775390625,1.0095977783203125,0.1199188232421875
25.98,0.026088858023285866,-0.35366564989089966,0.007069360930472612,0.2034912109375,0.9819183349609375,0.1165313720703125
26,0.09749912470579147,-0.3135014474391937,0.013739514164626598,0.196319580078125,0.95831298828125,0.1031494140625
26.02,0.12240021675825119,-0.20814122259616852,0.05281314626336098,0.1943817138671875,0.9644927978515625,0.10113525390625
26.04,0.12302632629871368,-0.016087090596556664,0.03713778033852577,0.189727783203125,0.9628143310546875,0.1009979248046875
26.06,0.09802110493183136,0.05317533761262894,0.030164293944835663,0.1850738525390625,0.9632110595703125,0.073333740234375
26.08,0.04703968018293381,0.04663141816854477,0.06992262601852417,0.211273193359375,0.977447509765625,0.0653076171875
26.1,0.051230162382125854,0.028301145881414413,0.05806703120470047,0.249725341796875,0.983612060546875,0.0647125244140625
26.12,0.05674663558602333,-0.10098813474178314,0.10027706623077393,0.240264892578125,0.99786376953125,0.052886962890625
26.14,0.03672712296247482,-0.21714776754379272,0.10212264209985733,0.239501953125,0.98040771484375,0.071685791015625
26.16,0.0013148026773706079,-0.27680522203445435,0.056833453476428986,0.2112579345703125,0.968292236328125,0.072845458984375
26.18,-0.03371215611696243,-0.2575255334377289,0.017488179728388786,0.20086669921875,0.967376708984375,0.07708740234375
26.2,-0.04391712322831154,-0.24659647047519684,0.021089838817715645,0.1986846923828125,0.9779205322265625,0.068695068359375
26.22,-0.055218782275915146,-0.18874967098236084,0.013921674340963364,0.200958251953125,0.9806976318359375,0.0692138671875
26.24,-0.06269454210996628,-0.06220291927456856,-0.024084031581878662,0.1892547607421875,0.96636962890625,0.0665435791015625
26.26,-0.052148155868053436,-0.04062119498848915,-0.06046813726425171,0.1824493408203125,0.95501708984375,0.0511932373046875
26.28,-0.051000066101551056,-0.12754091620445251,-0.05403820052742958,0.1998291015625,0.963958740234375,0.064910888671875
26.3,-0.08108020573854446,-0.07712887227535248,-0.04043477401137352,0.216033935546875,0.9863433837890625,0.07244873046875
26.32,-0.10787320137023926,-0.041682999581098557,-0.040877923369407654,0.2159881591796875,0.972564697265625,0.0527191162109375
26.34,-0.11254145950078964,-0.15517067909240723,-0.013381851837038994,0.22723388671875,0.9644775390625,0.06170654296875
26.36,-0.11707629263401031,-0.3194693326950073,0.016380304470658302,0.2413482666015625,0.96710205078125,0.074493408203125
26.38,-0.1282767504453659,-0.3608625829219818,0.03520539030432701,0.2304840087890625,0.95172119140625,0.0764923095703125
26.4,-0.14584268629550934,-0.2796364426612854,0.08262456953525543,0.2195587158203125,0.955535888671875,0.0700836181640625
26.42,-0.10187017172574997,-0.1926109939813614,0.11652687937021255,0.20831298828125,0.9765167236328125,0.0607757568359375
26.44,-0.006709301844239235,-0.20853589475154877,0.12425963580608368,0.1945037841796875,0.9801025390625,0.057708740234375
26.46,0.06924218684434891,-0.2780526578426361,0.10513041168451309,0.18585205078125,0.969146728515625,0.068389892578125
26.48,0.09213311970233917,-0.34777262806892395,0.026579147204756737,0.1770782470703125,0.95220947265625,0.084747314453125
26.5,0.05619269981980324,-0.396445095539093,-0.07661088556051254,0.171630859375,0.952239990234375,0.0952301025390625
26.52,-0.007192931603640318,-0.5024407505989075,-0.12318930774927139,0.1837158203125,0.9623565673828125,0.1013641357421875
26.54,-0.07851904630661011,-0.6187122464179993,-0.10637224465608597,0.210968017578125,0.9537811279296875,0.10711669921875
26.56,-0.1511881798505783,-0.6579006314277649,-0.08842813223600388,0.2262115478515625,0.951263427734375,0.1011962890625
26.58,-0.1985762119293213,-0.5874464511871338,-0.0843026265501976,0.230865478515625,0.954559326171875,0.0877532958984375
26.6,-0.2138766050338745,-0.5188644528388977,-0.05260009318590164,0.23052978515625,0.9819183349609375,0.07061767578125
26.62,-0.20237547159194946,-0.5035400986671448,-0.01776115410029888,0.2340850830078125,0.9923095703125,0.061492919921875
26.64,-0.1226007491350174,-0.6491958498954773,0.02546088583767414,0.23687744140625,0.9783935546875,0.059295654296875
26.66,-0.03644775599241257,-0.863361656665802,0.0591469444334507,0.234893798828125,0.9558563232421875,0.0591278076171875
26.68,0.005327120888978243,-0.9692252278327942,0.08484618365764618,0.2325592041015625,0.9442138671875,0.0677642822265625
26.7,0.03847069293260574,-1.0143743753433228,0.12231419235467911,0.228057861328125,0.94647216796875,0.0715179443359375
26.72,0.0808945819735527,-1.025802731513977,0.15275253355503082,0.222991943359375,0.956695556640625,0.077972412109375
26.74,0.14758439362049103,-0.9624999761581421,0.1589134782552719,0.215362548828125,0.9695587158203125,0.0853118896484375
26.76,0.2151714265346527,-0.8259304165840149,0.19328556954860687,0.2002410888671875,0.9694976806640625,0.092071533203125
26.78,0.29443028569221497,-0.5863987803459167,0.21423080563545227,0.195220947265625,0.970794677734375,0.1015625
26.8,0.38303765654563904,-0.31062257289886475,0.21454505622386932,0.1761474609375,0.972564697265625,0.1040802001953125
26.82,0.4442805051803589,-0.03656759858131409,0.24070662260055542,0.163665771484375,0.97314453125,0.1169281005859375
26.84,0.4411025643348694,0.3247743546962738,0.28966084122657776,0.154388427734375,0.9818115234375,0.1360626220703125
26.86,0.3512134253978729,0.7655011415481567,0.3024709224700928,0.140228271484375,0.9822998046875,0.1650238037109375
26.88,0.19071827828884125,1.0755420923233032,0.3221093416213989,0.122894287109375,0.976898193359375,0.1959075927734375
26.9,0.03111504204571247,0.9855037927627563,0.2771383821964264,0.1251220703125,0.980194091796875,0.2246856689453125
26.92,-0.07727508246898651,0.5443306565284729,0.2103918492794037,0.1149749755859375,0.9910736083984375,0.2390899658203125
26.94,-0.16583050787448883,0.02135455794632435,0.11593618988990784,0.1183929443359375,0.9954833984375,0.233673095703125
26.96,-0.2482345700263977,-0.3836773633956909,-0.002058357233181596,0.114715576171875,0.975860595703125,0.2102203369140625
26.98,-0.3168240189552307,-0.5777584314346313,-0.06621630489826202,0.1195068359375,0.9608917236328125,0.169036865234375
27,-0.377923846244812,-0.5310042500495911,-0.11857671290636063,0.1415252685546875,0.969879150390625,0.1251678466796875
27.02,-0.4240996241569519,-0.4075624346733093,-0.13283555209636688,0.1650543212890625,0.993499755859375,0.093475341796875
27.04,-0.4334678053855896,-0.3216981291770935,-0.1303931623697281,0.1948089599609375,1.0145416259765625,0.0731964111328125
27.06,-0.38554635643959045,-0.278285413980484,-0.14143861830234528,0.2119293212890625,0.9885406494140625,0.056427001953125
27.08,-0.2868163287639618,-0.28695106506347656,-0.1642427295446396,0.22369384765625,0.9601593017578125,0.0425872802734375
27.1,-0.17601071298122406,-0.28065216541290283,-0.15146009624004364,0.242340087890625,0.9543609619140625,0.0331573486328125
27.12,-0.097086600959301,-0.18652939796447754,-0.09649883955717087,0.263275146484375,0.9745330810546875,0.0255279541015625
27.14,-0.05488961562514305,-0.013520335778594017,-0.04634326323866844,0.274871826171875,0.9715728759765625,0.024078369140625
27.16,0.025730663910508156,0.07339538633823395,0.00914662703871727,0.278717041015625,0.969573974609375,0.0263824462890625
27.18,0.16827183961868286,0.03454039990901947,0.023435285314917564,0.2790679931640625,0.9672393798828125,0.0245361328125
27.2,0.2570917308330536,0.014093182049691677,0.04355306923389435,0.264373779296875,0.95965576171875,0.027679443359375
27.22,0.28233370184898376,0.06279627233743668,0.07891079038381577,0.2595367431640625,0.9630889892578125,0.0430908203125
27.24,0.30161070823669434,0.1341777741909027,0.10912169516086578,0.250457763671875,0.974151611328125,0.051239013671875
27.26,0.3197782635688782,0.2023661583662033,0.12963709235191345,0.237213134765625,0.983551025390625,0.059051513671875
27.28,0.3198363184928894,0.2501797378063202,0.1294509321451187,0.2153167724609375,0.9839019775390625,0.06597900390625
27.3,0.30169621109962463,0.2523435652256012,0.10814644396305084,0.1961669921875,0.9770355224609375,0.0761871337890625
27.32,0.2822665870189667,0.21078920364379883,0.06466367840766907,0.18115234375,0.974884033203125,0.0856475830078125
27.34,0.2579450011253357,0.14355850219726562,0.0340019091963768,0.1788482666015625,0.9804229736328125,0.0909576416015625
27.36,0.2283029407262802,0.10072953999042511,0.02263101004064083,0.1882476806640625,0.983123779296875,0.0921630859375
27.38,0.1957828253507614,0.08850669860839844,0.00930055696517229,0.1975860595703125,0.98101806640625,0.088165283203125
27.4,0.17519284784793854,0.06597528606653214,-0.005394765175879002,0.20184326171875,0.9694671630859375,0.0831146240234375
27.42,0.29927486181259155,-0.10554186999797821,-0.05697619915008545,0.20855712890625,0.96612548828125,0.079376220703125
27.44,0.22845235466957092,-0.052082110196352005,0.07785964757204056,0.23223876953125,0.9607391357421875,0.067596435546875
27.46,0.14222131669521332,0.11986248940229416,-0.012379171326756477,0.21533203125,0.9810638427734375,0.0792083740234375
27.48,0.10731713473796844,0.2296326607465744,0.004513791762292385,0.188751220703125,0.95953369140625,0.075439453125
27.5,0.14409884810447693,0.2930377423763275,0.03948695585131645,0.2077789306640625,0.96917724609375,0.0648956298828125
27.52,0.20232035219669342,0.3774825632572174,0.04855049028992653,0.19793701171875,0.9722747802734375,0.060028076171875
27.54,0.23839552700519562,0.5159371495246887,0.03735535964369774,0.1803436279296875,0.9546051025390625,0.060882568359375
27.56,0.24884682893753052,0.6923111081123352,0.01660507544875145,0.164642333984375,0.9457244873046875,0.0682220458984375
27.58,0.3062310218811035,0.6900306344032288,-0.015963787212967873,0.1528472900390625,0.960052490234375,0.07452392578125
27.6,0.43633711338043213,0.05680708959698677,-0.04898112639784813,0.182342529296875,1.0316314697265625,0.081207275390625
27.62,0.44193559885025024,-0.5728086829185486,-0.06440775096416473,0.2343597412109375,1.0740203857421875,0.1143646240234375
27.64,0.27328985929489136,-0.6728138327598572,-0.09680590778589249,0.193267822265625,0.909027099609375,0.1051788330078125
27.66,0.04808789864182472,-0.4579169750213623,-0.0892593041062355,0.133148193359375,0.7992706298828125,0.0879364013671875
27.68,-0.11244478821754456,-0.24595864117145538,0.08744595944881439,0.164581298828125,0.9214019775390625,0.08551025390625
27.7,-0.26688042283058167,0.2334846556186676,0.25569620728492737,0.2224273681640625,1.10394287109375,0.09771728515625
27.72,-0.2902595102787018,0.703700602054596,-0.000012783173588104546,0.1733856201171875,1.051116943359375,0.0986328125
27.74,-0.08962681889533997,0.3011726140975952,-0.2726152837276459,0.127838134765625,0.9502410888671875,0.0837249755859375
27.76,-0.23285189270973206,0.018037589266896248,-0.2360391616821289,0.22442626953125,0.9154205322265625,0.0887298583984375
27.78,-1.0090723037719727,0.9981958866119385,-0.0857817530632019,0.3282470703125,0.92242431640625,0.0928955078125
27.8,-0.3813561499118805,1.6559122800827026,0.3266170024871826,0.452728271484375,0.9571380615234375,-0.009521484375
27.82,1.7100348472595215,0.9401435256004333,0.7354438900947571,0.69635009765625,1.0877532958984375,-0.5714263916015625
27.84,1.9825239181518555,-0.8399673700332642,1.0931003093719482,0.71856689453125,1.21246337890625,-0.6709442138671875
27.86,1.1031465530395508,-2.4090685844421387,1.658202052116394,0.7219085693359375,1.306915283203125,-0.1845855712890625
27.88,0.49786704778671265,-2.6499099731445312,1.8690253496170044,0.6987762451171875,1.33013916015625,0.039031982421875
27.9,0.22972001135349274,-1.333762764930725,1.466317057609558,0.49169921875,1.2193145751953125,-0.0063629150390625
27.92,0.3912407457828522,0.05433114990592003,0.837429940700531,0.1314697265625,0.75201416015625,-0.0245513916015625
27.94,1.0642801523208618,0.9634933471679688,0.23450012505054474,-0.0672760009765625,0.3843231201171875,-0.13958740234375
27.96,1.6500918865203857,1.8167877197265625,0.2288837730884552,-0.21258544921875,0.132232666015625,-0.3387603759765625
27.98,1.7200374603271484,2.93285870552063,0.5547260642051697,-0.003662109375,0.3535003662109375,-0.33551025390625
28,1.5853798389434814,3.7985148429870605,0.620671272277832,0.1239776611328125,0.6371917724609375,-0.4105377197265625
28.02,1.295964241027832,2.957606792449951,0.2844375967979431,0.239471435546875,0.7794342041015625,-0.55096435546875
28.04,0.6273038387298584,0.8295637369155884,0.1926991492509842,0.1595001220703125,0.7338104248046875,-0.016204833984375
28.06,0.6613920331001282,0.680454671382904,0.9833282828330994,0.2910614013671875,0.785675048828125,0.33697509765625
28.08,1.6243575811386108,1.916945457458496,2.2814340591430664,0.7917633056640625,0.9157562255859375,-0.3116455078125
28.1,1.6652346849441528,2.185429811477661,2.498418092727661,1.0764007568359375,0.936920166015625,-0.3488006591796875
28.12,1.1586670875549316,1.6480756998062134,1.4907307624816895,0.9103546142578125,0.7947845458984375,-0.0518646240234375
28.14,1.0767180919647217,0.6519455313682556,0.9105017185211182,0.809417724609375,0.666229248046875,0.0269317626953125
28.16,0.8240209221839905,-1.3095487356185913,1.2528142929077148,1.0614166259765625,0.729461669921875,-0.31231689453125
28.18,0.8355215191841125,-1.9561117887496948,1.2584974765777588,0.869720458984375,0.66339111328125,-0.1310882568359375
28.2,0.758154034614563,-0.8646122813224792,1.0157970190048218,0.5914459228515625,0.569000244140625,-0.141021728515625
28.22,0.8797478079795837,0.1904889941215515,0.9215432405471802,0.431121826171875,0.5139007568359375,-0.1364593505859375
28.24,0.7886946201324463,0.4564564824104309,1.2064430713653564,0.450714111328125,0.4608917236328125,-0.2276153564453125
28.26,0.7126563191413879,-0.07686974853277206,1.3051750659942627,0.52130126953125,0.4729461669921875,-0.2601318359375
28.28,0.7635208368301392,-0.2858645021915436,1.2110024690628052,0.6557769775390625,0.52960205078125,-0.262542724609375
28.3,0.811432421207428,-0.5445024371147156,1.2529029846191406,0.81005859375,0.658172607421875,-0.257049560546875
28.32,0.7643128633499146,-0.9604794383049011,1.2435239553451538,0.8074798583984375,0.71099853515625,-0.288482666015625
28.34,0.8831998109817505,-1.0804601907730103,1.106940746307373,0.628631591796875,0.591888427734375,-0.3428802490234375
28.36,0.9660017490386963,-0.6469161510467529,1.168584942817688,0.5354766845703125,0.462799072265625,-0.36126708984375
28.38,0.7652257680892944,-0.47984597086906433,1.3626534938812256,0.6231536865234375,0.4107208251953125,-0.3496856689453125
28.4,0.7579638957977295,-0.5810980200767517,1.1663590669631958,0.744476318359375,0.4392242431640625,-0.2901153564453125
28.42,0.9122820496559143,-0.12837713956832886,1.2161519527435303,0.6934661865234375,0.4880523681640625,-0.28717041015625
28.44,0.7691994905471802,-0.47872957587242126,1.5250887870788574,0.900634765625,0.4647369384765625,-0.4102783203125
28.46,0.7844055891036987,-0.5256193280220032,1.5469386577606201,0.85064697265625,0.463104248046875,-0.42852783203125
28.48,1.0838817358016968,-0.30040910840034485,1.6266803741455078,0.78961181640625,0.3744964599609375,-0.5082855224609375
28.5,0.8771917223930359,-0.19068579375743866,1.6494810581207275,0.9819793701171875,0.3446197509765625,-0.447479248046875
28.52,0.7766749858856201,-0.32084566354751587,1.6247397661209106,0.8918304443359375,0.378143310546875,-0.435394287109375
28.54,0.8660320043563843,-0.2595173120498657,1.566229224205017,0.820281982421875,0.31451416015625,-0.5046234130859375
28.56,0.8518618941307068,-0.2592241168022156,1.5274232625961304,0.78570556640625,0.2904205322265625,-0.50091552734375
28.58,0.8572190999984741,-0.1454184502363205,1.4736945629119873,0.8047943115234375,0.252838134765625,-0.4576873779296875
28.6,0.8384736180305481,-0.18862850964069366,1.3035677671432495,0.8020477294921875,0.2260284423828125,-0.509521484375
28.62,0.8411163091659546,-0.1981210708618164,1.3037928342819214,0.8316497802734375,0.228240966796875,-0.5618438720703125
28.64,0.9416982531547546,-0.6659939885139465,1.243982195854187,0.941497802734375,0.2213287353515625,-0.6082305908203125
28.66,0.9356963038444519,-0.7654457688331604,1.1445283889770508,0.9669647216796875,0.1945343017578125,-0.6212615966796875
28.68,1.0220788717269897,-0.9216969013214111,0.9895694255828857,0.8837738037109375,0.1275482177734375,-0.5857391357421875
28.7,1.0631355047225952,-1.0601646900177002,0.9609121680259705,0.82537841796875,0.13409423828125,-0.6569061279296875
28.72,1.0734986066818237,-1.1927566528320312,0.709886908531189,0.8094940185546875,0.03350830078125,-0.641571044921875
28.74,1.0136313438415527,-1.0200713872909546,0.4892809987068176,0.7632598876953125,-0.0518646240234375,-0.6057281494140625
28.76,0.9747536778450012,-1.0261214971542358,0.4592365622520447,0.700531005859375,-0.063568115234375,-0.6315460205078125
28.78,0.8268830180168152,-0.7393597960472107,0.2015024870634079,0.748565673828125,-0.16485595703125,-0.5537567138671875
28.8,0.528703510761261,-0.7417617440223694,-0.08284801244735718,0.7177886962890625,-0.27178955078125,-0.5668487548828125
28.82,0.18321189284324646,-0.543038010597229,-0.12157969176769257,0.669647216796875,-0.259552001953125,-0.631195068359375
28.84,0.005566006526350975,-0.4293588101863861,-0.1768016666173935,0.82562255859375,-0.268035888671875,-0.6685943603515625
28.86,-0.254863977432251,-0.5063965916633606,-0.41873735189437866,0.9250030517578125,-0.2091827392578125,-0.7467803955078125
28.88,-0.5522871613502502,-0.7106016874313354,-0.7676969170570374,0.99700927734375,-0.1853179931640625,-0.847564697265625
28.9,-0.7604531049728394,-0.662518322467804,-1.2090498208999634,1.0258941650390625,-0.0164642333984375,-0.8692169189453125
28.92,-0.83167964220047,-0.34545087814331055,-1.2644965648651123,0.9160614013671875,0.1881103515625,-0.7882537841796875
28.94,-0.8097988367080688,0.10433279722929001,-1.1576894521713257,0.790130615234375,0.224945068359375,-0.64495849609375
28.96,-0.8074384927749634,0.7891678810119629,-0.9508864283561707,0.5741729736328125,0.2520599365234375,-0.566192626953125
28.98,-0.7994897365570068,1.0898182392120361,-0.7879830002784729,0.471221923828125,0.234100341796875,-0.5621795654296875
29,-0.6626019477844238,1.2557235956192017,-0.730961263179779,0.4363250732421875,0.219696044921875,-0.54998779296875
29.02,-0.6993724703788757,1.0495781898498535,-0.712052583694458,0.497222900390625,0.2384490966796875,-0.5892486572265625
29.04,-0.8602433800697327,0.6563495993614197,-1.0208258628845215,0.5869903564453125,0.105133056640625,-0.5720672607421875
29.06,-1.004799723625183,0.38180461525917053,-1.076174020767212,0.602142333984375,0.1546173095703125,-0.5319061279296875
29.08,-0.9020781517028809,0.12974201142787933,-1.0070961713790894,0.7811126708984375,0.273345947265625,-0.53607177734375
29.1,-0.788934051990509,0.11051452904939651,-0.9727174639701843,0.7911376953125,0.398162841796875,-0.5246734619140625
29.12,-0.7964646816253662,-0.04487479850649834,-0.9237920045852661,0.8309478759765625,0.367156982421875,-0.5764923095703125
29.14,-0.8181318640708923,-0.063090018928051,-0.8205678462982178,0.7950439453125,0.369293212890625,-0.57958984375
29.16,-0.7697294354438782,-0.07127098739147186,-0.6505921483039856,0.7746429443359375,0.4153289794921875,-0.5937957763671875
29.18,-0.6640706658363342,0.2061782032251358,-0.583318293094635,0.779083251953125,0.4777374267578125,-0.6022491455078125
29.2,-0.6206763386726379,0.13506726920604706,-0.5055140256881714,0.7789306640625,0.514373779296875,-0.6702728271484375
29.22,-0.49581828713417053,0.13938772678375244,-0.4158419370651245,0.8410491943359375,0.5050506591796875,-0.69012451171875
29.24,-0.3790093660354614,0.13103871047496796,-0.3801015317440033,0.897613525390625,0.55462646484375,-0.73724365234375
29.26,-0.3211122453212738,-0.009909888729453087,-0.3280511200428009,0.926605224609375,0.579803466796875,-0.7683563232421875
29.28,-0.2688514292240143,-0.06113685667514801,-0.37194374203681946,0.924072265625,0.5788421630859375,-0.7514801025390625
29.3,-0.2785693109035492,-0.03322586417198181,-0.51577228307724,0.84552001953125,0.4874114990234375,-0.70562744140625
29.32,-0.1983458399772644,0.06619100272655487,-0.5074432492256165,0.6993408203125,0.48052978515625,-0.6380767822265625
29.34,-0.1708441823720932,0.18983039259910583,-0.5087351202964783,0.61224365234375,0.4722747802734375,-0.579315185546875
29.36,-0.2287500947713852,0.19613781571388245,-0.5631115436553955,0.59014892578125,0.396942138671875,-0.550567626953125
29.38,0.9096471667289734,0.2512221038341522,-0.2187429964542389,0.6508331298828125,0.3600616455078125,-0.52471923828125
29.4,-0.36254116892814636,0.41394126415252686,-0.11125142127275467,1.1942291259765625,0.383148193359375,-1.680084228515625
29.42,-0.23200634121894836,-0.41911256313323975,-0.6726124882698059,0.8401336669921875,0.7931976318359375,-0.2197265625
29.44,0.08559772372245789,0.15575045347213745,-0.179899200797081,0.6480560302734375,0.3686981201171875,-0.5170135498046875
29.46,-0.13714879751205444,0.06537181884050369,-0.32501429319381714,0.843048095703125,0.5235748291015625,-0.3379974365234375
