timestamp,gyro_x,gyro_y,gyro_z,acc_x,acc_y,acc_z
10,0.008753543719649315,0.0028069717809557915,0.000028762138754245825,-0.1871337890625,0.97552490234375,-0.079986572265625
10.02,0.005358013790100813,0.01016794890165329,-0.003733751829713583,-0.1893310546875,0.9762115478515625,-0.0821685791015625
10.04,-0.0011891013709828258,0.0157691091299057,-0.004120975267142057,-0.191192626953125,0.975006103515625,-0.0775146484375
10.06,-0.0033899378031492233,0.021808093413710594,-0.001416002749465406,-0.1886444091796875,0.9725799560546875,-0.0765228271484375
10.08,-0.004340420011430979,0.004781972151249647,0.01022973470389843,-0.18731689453125,0.9756317138671875,-0.0766754150390625
10.1,0.008621717803180218,-0.006395314820110798,0.005882123950868845,-0.18804931640625,0.9735107421875,-0.0761260986328125
10.12,0.009214803576469421,-0.008332232013344765,0.004022704903036356,-0.1919097900390625,0.9715423583984375,-0.0769805908203125
10.14,-0.003215766977518797,0.002953711897134781,-0.002242914168164134,-0.1927642822265625,0.9760589599609375,-0.076416015625
10.16,-0.0031273500062525272,0.025911757722496986,-0.00515827676281333,-0.1912841796875,0.9739227294921875,-0.0756072998046875
10.18,-0.0065164887346327305,0.02281317114830017,0.0034525219816714525,-0.1875457763671875,0.974151611328125,-0.078826904296875
10.2,0.007567372173070908,0.022772423923015594,0.0075905416160821915,-0.18572998046875,0.9749298095703125,-0.0797882080078125
10.22,0.01624182052910328,0.005382515024393797,0.009965548291802406,-0.1888427734375,0.9753570556640625,-0.0807342529296875
10.24,0.01745275966823101,-0.009674998000264168,0.008285893127322197,-0.191314697265625,0.975433349609375,-0.076873779296875
10.26,0.010113886557519436,-0.01410649809986353,0.0034791536163538694,-0.194732666015625,0.973358154296875,-0.073211669921875
10.28,-0.0018935075495392084,-0.006410228554159403,-0.0010961571242660284,-0.1944580078125,0.97210693359375,-0.071075439453125
10.3,-0.006688262801617384,-0.0014207963831722736,-0.006471215281635523,-0.1956024169921875,0.974853515625,-0.0725250244140625
10.32,-0.009282181970775127,0.00013209278404247016,-0.0060152821242809296,-0.1918487548828125,0.9751129150390625,-0.0751800537109375
10.34,-0.009039035066962242,0.003519633784890175,-0.005921006202697754,-0.18988037109375,0.973846435546875,-0.076202392578125
10.36,0.0022298647090792656,0.014277206733822823,-0.005546831991523504,-0.187713623046875,0.976348876953125,-0.080657958984375
10.38,0.005417935084551573,0.016062056645751,0.006311425473541021,-0.18328857421875,0.97998046875,-0.0807342529296875
10.4,-0.00481206551194191,0.0023100259713828564,0.007792675402015448,-0.1827545166015625,0.9759063720703125,-0.0781707763671875
10.42,-0.0070432620123028755,0.016979515552520752,0.002900714986026287,-0.187042236328125,0.9763336181640625,-0.073699951171875
10.44,-0.0121264373883605,0.03142077475786209,0.013293967582285404,-0.1854095458984375,0.9803466796875,-0.07275390625
10.46,-0.02889369986951351,-0.007647000718861818,0.01763438805937767,-0.1829681396484375,0.9745635986328125,-0.0697479248046875
10.48,-0.03037841245532036,-0.022914636880159378,0.025419872254133224,-0.1866455078125,0.969635009765625,-0.06689453125
10.5,-0.023263243958353996,-0.034742265939712524,0.029411951079964638,-0.1867523193359375,0.9733123779296875,-0.07513427734375
10.52,-0.015904132276773453,-0.04960563778877258,0.023519441485404968,-0.18756103515625,0.972259521484375,-0.0800628662109375
10.54,-0.008312257938086987,-0.03489593043923378,0.018760105594992638,-0.1902618408203125,0.9696807861328125,-0.082977294921875
10.56,0.004877845756709576,0.010697651654481888,0.007767641916871071,-0.19091796875,0.9710845947265625,-0.0887298583984375
10.58,0.01678537204861641,0.047452736645936966,-0.0007222492713481188,-0.1922607421875,0.9734649658203125,-0.0897216796875
10.6,0.023916784673929214,0.051237087696790695,-0.00908537395298481,-0.1931610107421875,0.9698944091796875,-0.0861358642578125
10.62,0.023928768932819366,0.03393932431936264,-0.013638047501444817,-0.19683837890625,0.9673614501953125,-0.0790557861328125
10.64,0.026104304939508438,0.022844063118100166,-0.016284430399537086,-0.196197509765625,0.9776153564453125,-0.0756988525390625
10.66,0.024827584624290466,0.03858973830938339,-0.01907728798687458,-0.1904754638671875,0.977630615234375,-0.0760498046875
10.68,0.007259510923177004,0.059056662023067474,-0.006302637048065662,-0.1773681640625,0.974334716796875,-0.0761566162109375
10.7,-0.0057220677845180035,0.060263607650995255,0.018681809306144714,-0.165863037109375,0.9798431396484375,-0.0755462646484375
10.72,0.0009169263648800552,0.022233666852116585,0.0355079248547554,-0.1661529541015625,0.9771270751953125,-0.0770416259765625
10.74,0.0183438528329134,-0.018579009920358658,0.04193120449781418,-0.17694091796875,0.9745635986328125,-0.078094482421875
10.76,0.027305923402309418,-0.03502056747674942,0.04535656422376633,-0.1874237060546875,0.976470947265625,-0.0765533447265625
10.78,0.01787726767361164,-0.03797561302781105,0.026565298438072205,-0.199249267578125,0.97625732421875,-0.0731353759765625
10.8,0.0025662221014499664,-0.008299209177494049,-0.0044381581246852875,-0.2078399658203125,0.968994140625,-0.0687408447265625
10.82,-0.018432004377245903,0.03333638608455658,-0.02647262066602707,-0.212615966796875,0.97265625,-0.0683135986328125
10.84,-0.02996908500790596,0.06454809755086899,-0.040101878345012665,-0.2024688720703125,0.9739227294921875,-0.071563720703125
10.86,-0.022656843066215515,0.07128589600324631,-0.029332056641578674,-0.188934326171875,0.971038818359375,-0.0774688720703125
10.88,-0.005122323986142874,0.035472240298986435,-0.0036706349346786737,-0.1744537353515625,0.9742279052734375,-0.0836181640625
10.9,0.029438849538564682,0.0060120862908661366,0.011392736807465553,-0.1724700927734375,0.9771575927734375,-0.0873260498046875
10.92,0.041191376745700836,-0.011173025704920292,0.01335761696100235,-0.181854248046875,0.9800262451171875,-0.0847625732421875
10.94,0.026393257081508636,0.001353418454527855,-0.004281564150005579,-0.1910552978515625,0.97943115234375,-0.0748291015625
10.96,-0.0049465554766356945,0.014260428957641125,-0.01588255912065506,-0.195068359375,0.969879150390625,-0.067108154296875
10.98,-0.03472442552447319,0.009661681950092316,-0.009633452631533146,-0.18902587890625,0.97027587890625,-0.0652313232421875
11,-0.03009691648185253,-0.0075844163075089455,0.00123783724848181,-0.1819610595703125,0.976348876953125,-0.070709228515625
11.02,-0.018134795129299164,-0.03923768177628517,0.009490440599620342,-0.178680419921875,0.97784423828125,-0.079376220703125
11.04,0.007367102429270744,-0.036795563995838165,0.018072476610541344,-0.1763153076171875,0.9777679443359375,-0.08746337890625
11.06,0.012643356807529926,-0.03164767473936081,0.017658622935414314,-0.1740570068359375,0.974700927734375,-0.089630126953125
11.08,0.01167343370616436,-0.006006227340549231,0.02124376967549324,-0.1751708984375,0.9769744873046875,-0.087615966796875
11.1,0.006078931502997875,0.011770905926823616,0.024501347914338112,-0.17681884765625,0.9816436767578125,-0.0846099853515625
11.12,0.00989444274455309,0.007978297770023346,0.023455258458852768,-0.1796722412109375,0.9727783203125,-0.0815887451171875
11.14,0.02014841139316559,-0.018571287393569946,0.018102571368217468,-0.1846923828125,0.972412109375,-0.0816192626953125
11.16,0.017068732529878616,-0.03899214044213295,0.009012935683131218,-0.1971282958984375,0.9777069091796875,-0.078399658203125
11.18,0.004309260752052069,-0.024867000058293343,-0.016741694882512093,-0.199737548828125,0.9736785888671875,-0.07342529296875
11.2,-0.018675150349736214,0.030418625101447105,-0.038003575056791306,-0.1927947998046875,0.966827392578125,-0.074493408203125
11.22,-0.025740783661603928,0.08336706459522247,-0.014831410720944405,-0.17706298828125,0.976715087890625,-0.079864501953125
11.24,-0.015665512531995773,0.07295303791761398,-0.004203266929835081,-0.168701171875,0.9812164306640625,-0.085418701171875
11.26,0.007465106900781393,0.006144179031252861,0.023923175409436226,-0.1705780029296875,0.9791107177734375,-0.087188720703125
11.28,0.03837481886148453,-0.04554405063390732,0.027601800858974457,-0.1762237548828125,0.9785308837890625,-0.0845947265625
11.3,0.04117380082607269,-0.06314514577388763,0.01636379398405552,-0.1857452392578125,0.9770660400390625,-0.080780029296875
11.32,0.0028932581190019846,-0.05242006480693817,0.011745871976017952,-0.193267822265625,0.9741363525390625,-0.0708465576171875
11.34,-0.026488332077860832,-0.027042802423238754,-0.0079721724614501,-0.1945343017578125,0.977813720703125,-0.0636749267578125
11.36,-0.04204598814249039,-0.01985679566860199,-0.016629310324788094,-0.195037841796875,0.976348876953125,-0.068145751953125
11.38,-0.04009255766868591,-0.010971956886351109,-0.019291140139102936,-0.18853759765625,0.9739227294921875,-0.0723876953125
11.4,-0.03542643412947655,0.0003020024741999805,-0.025247033685445786,-0.1802520751953125,0.9717254638671875,-0.079803466796875
11.42,-0.026668095961213112,0.019176358357071877,-0.009125054813921452,-0.1719970703125,0.9740753173828125,-0.0855865478515625
11.44,-0.0037286917213350534,0.0322980172932148,0.008007858879864216,-0.1658935546875,0.9756622314453125,-0.0901947021484375
11.46,0.01432407833635807,0.015057246200740337,0.012092881835997105,-0.169708251953125,0.9774322509765625,-0.092376708984375
11.48,0.03771036118268967,0.004496481269598007,0.007243531756103039,-0.1823883056640625,0.9823150634765625,-0.08526611328125
11.5,0.029510222375392914,-0.004836566746234894,0.002436526119709015,-0.184783935546875,0.975982666015625,-0.0785064697265625
11.52,-0.0022650184109807014,0.010457434691488743,-0.006506102625280619,-0.1884307861328125,0.971405029296875,-0.067596435546875
11.54,-0.021105019375681877,0.03413160517811775,-0.004340686369687319,-0.18927001953125,0.9730377197265625,-0.0661468505859375
11.56,-0.03784378618001938,0.017852766439318657,-0.011818043887615204,-0.1862030029296875,0.975738525390625,-0.067840576171875
11.58,-0.02821965329349041,0.005245894659310579,-0.0017622136510908604,-0.1833343505859375,0.9723358154296875,-0.0729827880859375
11.6,-0.010571151971817017,0.019284214824438095,0.0040916805155575275,-0.177642822265625,0.9767608642578125,-0.0805816650390625
11.62,0.0015488944482058287,0.03014565259218216,0.004807005636394024,-0.1797637939453125,0.978546142578125,-0.0847320556640625
11.64,0.01125025749206543,0.041137050837278366,0.005557750817388296,-0.180755615234375,0.9751434326171875,-0.0813751220703125
11.66,0.01272991020232439,0.04050534963607788,0.008505071513354778,-0.1847076416015625,0.9699554443359375,-0.079254150390625
11.68,0.006130596622824669,0.0034639735240489244,0.0005201153689995408,-0.1932525634765625,0.9734954833984375,-0.07379150390625
11.7,0.012432434596121311,0.002326803747564554,-0.016921458765864372,-0.20123291015625,0.974822998046875,-0.067596435546875
11.72,0.0060235378332436085,0.010691526345908642,-0.027966920286417007,-0.1972503662109375,0.9755859375,-0.071441650390625
11.74,-0.015097193419933319,0.02876586839556694,-0.03223356977105141,-0.191650390625,0.973358154296875,-0.06903076171875
11.76,-0.02787211164832115,0.05042482540011406,-0.018022410571575165,-0.1801300048828125,0.97259521484375,-0.071014404296875
11.78,-0.024029435589909554,0.04407105594873428,-0.00038748994120396674,-0.170257568359375,0.976287841796875,-0.0772552490234375
11.8,0.0026056368369609118,0.013294500298798084,0.020596088841557503,-0.1747894287109375,0.981658935546875,-0.0812225341796875
11.82,0.024757543578743935,-0.038054440170526505,0.021916484460234642,-0.183258056640625,0.9763336181640625,-0.0820159912109375
11.84,0.03104633279144764,-0.06917401403188705,0.0121879568323493,-0.1946868896484375,0.972198486328125,-0.0735626220703125
11.86,0.026767965406179428,-0.05416842922568321,0.006599579472094774,-0.204742431640625,0.973968505859375,-0.06988525390625
11.88,-0.004325772635638714,-0.03707865998148918,-0.024941036477684975,-0.207672119140625,0.971282958984375,-0.066253662109375
11.9,-0.030351247638463974,-0.008875517174601555,-0.037214480340480804,-0.2101593017578125,0.9725341796875,-0.0621337890625
11.92,-0.038896799087524414,0.00023462448734790087,-0.0364869050681591,-0.19873046875,0.9719390869140625,-0.068511962890625
11.94,-0.03265275061130524,-0.02708461508154869,-0.03139174357056618,-0.1907501220703125,0.9708404541015625,-0.07318115234375
11.96,-0.005048554390668869,-0.04842266067862511,-0.01625460386276245,-0.1828155517578125,0.9740142822265625,-0.0801239013671875
11.98,0.008264588192105293,-0.07276981323957443,-0.008280300535261631,-0.1824188232421875,0.9781951904296875,-0.0843353271484375
12,0.024716798216104507,-0.06018637493252754,-0.0014245248166844249,-0.183685302734375,0.9789581298828125,-0.0830535888671875
12.02,0.016802415251731873,-0.05862975865602493,-0.0026639599818736315,-0.1845245361328125,0.975311279296875,-0.08258056640625
12.04,0.008888300508260727,-0.058567438274621964,0.0032120386604219675,-0.1852569580078125,0.9730682373046875,-0.0758819580078125
12.06,0.006841394584625959,-0.05374765023589134,0.007570301648229361,-0.1835174560546875,0.97076416015625,-0.0770111083984375
12.08,0.010183394886553288,-0.05518735572695732,0.007920240983366966,-0.186248779296875,0.972625732421875,-0.0783233642578125
12.1,0.01506763231009245,-0.038242459297180176,0.007933823391795158,-0.187835693359375,0.9776153564453125,-0.078521728515625
12.12,0.012986638583242893,-0.04207262024283409,0.007918909192085266,-0.18511962890625,0.97528076171875,-0.07928466796875
12.14,0.01944720186293125,-0.021690648049116135,0.0049153962172567844,-0.18743896484375,0.9746856689453125,-0.0758209228515625
12.16,0.014177071861922741,-0.013767743483185768,0.0064863949082791805,-0.1864166259765625,0.9724578857421875,-0.077423095703125
12.18,0.003995806910097599,-0.02317829057574272,0.005274390336126089,-0.188720703125,0.9739532470703125,-0.071075439453125
12.2,0.004428037907928228,-0.019570505246520042,0.0028429245576262474,-0.19024658203125,0.9734344482421875,-0.071533203125
12.22,0.00774633651599288,-0.018856246024370193,0.0005137237603776157,-0.1934661865234375,0.9751129150390625,-0.0709228515625
12.24,0.0004524710529949516,-0.023189209401607513,-0.0065564364194869995,-0.19293212890625,0.971771240234375,-0.0696563720703125
12.26,-0.0036570527590811253,-0.01666446402668953,-0.006882140878587961,-0.1904449462890625,0.973358154296875,-0.0701446533203125
12.28,-0.004862932022660971,0.0011227887589484453,-0.0036847495939582586,-0.182861328125,0.97235107421875,-0.0748748779296875
12.3,-0.0008809737046249211,0.013259346596896648,-0.00017789915727917105,-0.18359375,0.9756317138671875,-0.078033447265625
12.32,0.01185053400695324,0.021581191569566727,0.00990163255482912,-0.1792144775390625,0.978668212890625,-0.0797119140625
12.34,0.012240687385201454,0.0018836538074538112,0.008971390314400196,-0.1833953857421875,0.9744415283203125,-0.0805511474609375
12.36,0.01601438596844673,-0.00009693906031316146,0.010610832832753658,-0.186370849609375,0.97552490234375,-0.0753021240234375
12.38,0.00965688843280077,-0.005695702508091927,0.0023036343045532703,-0.1913604736328125,0.9720001220703125,-0.07415771484375
12.4,-0.0027411917690187693,0.0028394623659551144,0.0032506543211638927,-0.1945953369140625,0.972259521484375,-0.070831298828125
12.42,-0.007348194252699614,0.015511048957705498,-0.005501558072865009,-0.1949615478515625,0.9752655029296875,-0.0740509033203125
12.44,-0.007182279136031866,0.01966851018369198,-0.007445133291184902,-0.1913604736328125,0.976654052734375,-0.077880859375
12.46,0.005440305452793837,0.03518914431333542,-0.004318848252296448,-0.18597412109375,0.9730377197265625,-0.0811309814453125
12.48,0.005393700208514929,0.033425867557525635,0.0024668860714882612,-0.18463134765625,0.975250244140625,-0.08306884765625
12.5,0.008478439413011074,0.030731547623872757,0.0038163098506629467,-0.1856842041015625,0.976776123046875,-0.0786590576171875
12.52,0.011041466146707535,0.028012460097670555,0.0026181535795331,-0.1848297119140625,0.9715728759765625,-0.0786895751953125
12.54,0.007682420779019594,0.010557036846876144,0.006366552785038948,-0.1910247802734375,0.9768829345703125,-0.0783233642578125
12.56,0.004642955027520657,0.003992877434939146,0.0010812433902174234,-0.1923370361328125,0.97454833984375,-0.0736236572265625
12.58,0.0036099147982895374,0.004119910299777985,-0.006854443810880184,-0.1953277587890625,0.9730072021484375,-0.0761871337890625
12.6,-0.0015949672088027,0.022470954805612564,-0.010212157852947712,-0.1935577392578125,0.9771881103515625,-0.0764923095703125
12.62,-0.009565009735524654,0.033646110445261,-0.016577644273638725,-0.1892547607421875,0.9730377197265625,-0.07568359375
12.64,-0.005562278442084789,0.04957820475101471,-0.006578540429472923,-0.1857757568359375,0.97064208984375,-0.0784149169921875
12.66,-0.006369748618453741,0.029375998303294182,0.003023753175511956,-0.182830810546875,0.976409912109375,-0.08154296875
12.68,0.002481267089024186,0.014990401454269886,0.0049092709086835384,-0.1858062744140625,0.9746551513671875,-0.0790863037109375
12.7,0.013464676216244698,0.009771670214831829,0.0049012815579771996,-0.1881103515625,0.9749755859375,-0.081298828125
12.72,0.00923557672649622,0.009662214666604996,0.0009531453251838684,-0.1920318603515625,0.9759521484375,-0.0774078369140625
12.74,0.004038683604449034,0.020604610443115234,-0.0003283677506260574,-0.19256591796875,0.974151611328125,-0.07513427734375
12.76,-0.011031611822545528,0.017115071415901184,-0.0006868292111903429,-0.1937103271484375,0.9734954833984375,-0.0737457275390625
12.78,-0.0020530307665467262,0.02881673350930214,-0.0027334685437381268,-0.1930694580078125,0.9723358154296875,-0.0742645263671875
12.8,0.0017507621087133884,0.019829897210001945,0.004625111818313599,-0.1926116943359375,0.974639892578125,-0.07916259765625
12.82,0.0030426615849137306,-0.0036274916492402554,0.005047755315899849,-0.1884307861328125,0.97418212890625,-0.07806396484375
12.84,0.00911333691328764,0.0001030643325066194,0.009588711895048618,-0.190216064453125,0.9730377197265625,-0.077972412109375
12.86,0.008268848992884159,0.002445580903440714,0.0101402522996068,-0.1868896484375,0.97509765625,-0.08062744140625
12.88,0.014607172459363937,0.00523604080080986,0.004334028344601393,-0.1910247802734375,0.9727630615234375,-0.0809478759765625
12.9,0.013488911092281342,0.007164702285081148,0.006903179921209812,-0.192413330078125,0.975982666015625,-0.078369140625
12.92,0.012381302192807198,0.004451473709195852,0.009443302638828754,-0.1921844482421875,0.9748992919921875,-0.075531005859375
12.94,0.004011785611510277,-0.013371465727686882,0.007867244072258472,-0.194488525390625,0.9735565185546875,-0.07330322265625
12.96,0.0046456181444227695,-0.020611269399523735,-0.0003741741238627583,-0.1946258544921875,0.9720306396484375,-0.0730438232421875
12.98,-0.003120425855740905,-0.029515814036130905,0.004062119405716658,-0.194000244140625,0.974700927734375,-0.0753631591796875
13,0.0006439523422159255,-0.029686523601412773,-0.000928111607208848,-0.1897735595703125,0.9740142822265625,-0.07574462890625
13.02,-0.0002767024270724505,-0.012615660205483437,0.00021411814668681473,-0.190521240234375,0.9752349853515625,-0.0805816650390625
13.04,-0.004230431281030178,-0.0023760723415762186,-0.0033159018494188786,-0.186279296875,0.974456787109375,-0.082550048828125
13.06,-0.0025750105269253254,0.006849916651844978,0.0034645062405616045,-0.1839141845703125,0.974029541015625,-0.0830230712890625
13.08,0.011499263346195221,-0.00011105381418019533,0.007809986360371113,-0.180999755859375,0.973419189453125,-0.084686279296875
13.1,0.023149527609348297,-0.01787646859884262,0.017302557826042175,-0.183685302734375,0.975372314453125,-0.0848236083984375
13.12,0.02455407939851284,-0.026626817882061005,0.012429771944880486,-0.186004638671875,0.9765472412109375,-0.0828704833984375
13.14,0.0129938293248415,-0.020385965704917908,0.004856540355831385,-0.1925201416015625,0.974700927734375,-0.0780487060546875
13.16,-0.0007912251749075949,0.008433965034782887,-0.006993194576352835,-0.19219970703125,0.9723968505859375,-0.0766143798828125
13.18,-0.0057010287418961525,0.03909706696867943,-0.0035808864049613476,-0.189208984375,0.9749755859375,-0.07672119140625
13.2,-0.014477476477622986,0.02143019065260887,-0.0012626046082004905,-0.183624267578125,0.9750518798828125,-0.0794525146484375
13.22,-0.001651426195167005,-0.0019036275334656239,0.010298710316419601,-0.180755615234375,0.9732818603515625,-0.0814361572265625
13.24,0.01660294458270073,-0.007840080186724663,0.01083027757704258,-0.180328369140625,0.9768829345703125,-0.082672119140625
13.26,0.011332549154758453,-0.01689962111413479,0.010272344574332237,-0.184173583984375,0.979095458984375,-0.083953857421875
13.28,0.01077062264084816,0.01098447386175394,0.005222458858042955,-0.1855926513671875,0.97119140625,-0.0791168212890625
13.3,-0.002837864449247718,0.028483040630817413,0.002046639332547784,-0.1878814697265625,0.9747161865234375,-0.080718994140625
13.32,-0.0038927425630390644,0.042083270847797394,0.00024474450037814677,-0.18853759765625,0.9729461669921875,-0.078125
13.34,-0.004020574036985636,0.028175711631774902,0.009831857867538929,-0.183807373046875,0.9745635986328125,-0.07977294921875
13.36,0.005934854503720999,0.008616391569375992,0.007649663835763931,-0.1852264404296875,0.9738311767578125,-0.0782623291015625
13.38,0.011288074776530266,0.009241967462003231,0.008145544677972794,-0.185791015625,0.97607421875,-0.0823822021484375
13.4,0.005392368417233229,0.007918110117316246,0.007892011664807796,-0.1864013671875,0.974365234375,-0.08062744140625
13.42,0.004464789759367704,0.02286803163588047,0.008150071837008,-0.189453125,0.97381591796875,-0.0796051025390625
13.44,-0.00034727618913166225,0.022236064076423645,0.006286125164479017,-0.187957763671875,0.9743194580078125,-0.0794525146484375
13.46,0.0005009406013414264,0.025102956220507622,0.0029795446898788214,-0.189971923828125,0.97369384765625,-0.0778656005859375
13.48,0.007170294877141714,0.025554362684488297,0.0015334481140598655,-0.191009521484375,0.974700927734375,-0.080718994140625
13.5,0.001281779375858605,0.016750484704971313,-0.0025992451701313257,-0.19000244140625,0.9751739501953125,-0.078125
13.52,-0.001401355373673141,0.015022625215351582,0.001061802264302969,-0.1894989013671875,0.975006103515625,-0.0774078369140625
13.54,-0.012406336143612862,0.00905394833534956,0.006311425473541021,-0.1840972900390625,0.9755706787109375,-0.0781707763671875
13.56,-0.004927380476146936,0.007910920307040215,0.004444815684109926,-0.18414306640625,0.9719085693359375,-0.07879638671875
13.58,-0.00028096348978579044,-0.001038632821291685,0.0116776954382658,-0.1847076416015625,0.97503662109375,-0.083953857421875
13.6,0.008959938772022724,-0.0013941648649051785,0.010813498869538307,-0.1839141845703125,0.976898193359375,-0.08538818359375
13.62,0.00996075477451086,0.014007960446178913,0.007670436520129442,-0.1857147216796875,0.975616455078125,-0.08660888671875
13.64,0.0028445222415030003,0.013264939188957214,0.006009955424815416,-0.18505859375,0.972747802734375,-0.083465576171875
13.66,0.0014929680619388819,0.013067598454654217,0.011650264263153076,-0.1850433349609375,0.9732208251953125,-0.0822296142578125
13.68,0.0041675809770822525,0.004973985720425844,0.0018101505702361465,-0.1864166259765625,0.9744873046875,-0.08270263671875
13.7,0.007639011368155479,0.0034967304673045874,0.0038780951872467995,-0.18572998046875,0.9730987548828125,-0.0830078125
13.72,0.009408148936927319,0.007950867526233196,0.008236890658736229,-0.1828155517578125,0.97515869140625,-0.0837249755859375
13.74,0.006148439832031727,0.01019537914544344,0.007839014753699303,-0.1807708740234375,0.9737091064453125,-0.0826568603515625
13.76,0.005962018854916096,0.01751827262341976,0.0073266224935650826,-0.1807708740234375,0.976165771484375,-0.08221435546875
13.78,0.004126834217458963,0.018854914233088493,0.007213704288005829,-0.18017578125,0.9786529541015625,-0.08209228515625
13.8,-0.00036964676110073924,0.0037862160243093967,0.012695555575191975,-0.1828765869140625,0.972991943359375,-0.08050537109375
13.82,0.007113036699593067,-0.0059995693154633045,0.013940849341452122,-0.1862030029296875,0.9750518798828125,-0.0792388916015625
13.84,0.0054602790623903275,-0.0270697008818388,0.011260643601417542,-0.1866607666015625,0.9760284423828125,-0.081817626953125
13.86,0.004411792848259211,-0.019698336720466614,0.008094411343336105,-0.1870269775390625,0.9732208251953125,-0.0792694091796875
13.88,0.003638677066192031,0.005824865773320198,0.0033910030033439398,-0.184906005859375,0.97515869140625,-0.082366943359375
13.9,-0.004348675720393658,0.012769591063261032,-0.0044440170750021935,-0.18505859375,0.97454833984375,-0.0820770263671875
13.92,-0.001966744428500533,0.02502865344285965,0.0006380933918990195,-0.181060791015625,0.9739532470703125,-0.082275390625
13.94,-0.00009187905379803851,0.026679281145334244,0.007788148242980242,-0.1766510009765625,0.97589111328125,-0.0839996337890625
13.96,0.007799866143614054,0.017548367381095886,0.01613529399037361,-0.1766510009765625,0.9751434326171875,-0.086517333984375
13.98,0.015150456689298153,-0.00848749466240406,0.01846582628786564,-0.18072509765625,0.9779052734375,-0.08599853515625
14,0.012381035834550858,-0.023209448903799057,0.006431800313293934,-0.187347412109375,0.9749603271484375,-0.080657958984375
14.02,0.0022796657867729664,-0.001517469179816544,-0.003748665563762188,-0.1930084228515625,0.9728851318359375,-0.0783538818359375
14.04,-0.010941597633063793,0.022462164983153343,-0.012093414552509785,-0.1906890869140625,0.9757232666015625,-0.07684326171875
14.06,-0.018216554075479507,0.03197044879198074,-0.016445286571979523,-0.187347412109375,0.972808837890625,-0.0792083740234375
14.08,-0.01501144003123045,0.015898538753390312,-0.009737848304212093,-0.179443359375,0.975250244140625,-0.0802001953125
14.1,-0.00606401776894927,-0.009159409441053867,-0.0003861583536490798,-0.178741455078125,0.9736328125,-0.085479736328125
14.12,0.013700632378458977,-0.014874553307890892,0.003421895671635866,-0.1764068603515625,0.97686767578125,-0.087615966796875
14.14,0.012828180566430092,-0.011465707793831825,0.0031443943735212088,-0.1782073974609375,0.976776123046875,-0.08697509765625
14.16,0.00155262288171798,-0.00213585514575243,0.0031305458396673203,-0.177642822265625,0.9756011962890625,-0.0847015380859375
14.18,-0.005864014383405447,0.012907808646559715,0.0014833806781098247,-0.1798553466796875,0.9760589599609375,-0.0819244384765625
14.2,-0.0014687333023175597,0.005435511935502291,0.0008855010382831097,-0.1814727783203125,0.9751129150390625,-0.0841217041015625
14.22,0.0017419736832380295,-0.01546630822122097,0.002482066163793206,-0.182464599609375,0.9768829345703125,-0.08441162109375
14.24,0.0011688614031299949,-0.027699271216988564,0.0027483822777867317,-0.180328369140625,0.9752655029296875,-0.084320068359375
14.26,0.006180131807923317,-0.009547432884573936,0.0004934837343171239,-0.1806793212890625,0.9759521484375,-0.084442138671875
14.28,0.0026972496416419744,0.015563779510557652,0.0015510249650105834,-0.17877197265625,0.9774932861328125,-0.087371826171875
14.3,-0.00726483715698123,0.02852778136730194,-0.0030088394414633512,-0.1797332763671875,0.975616455078125,-0.0852508544921875
14.32,-0.006570018362253904,0.017851701006293297,-0.0046722497791051865,-0.180389404296875,0.9767608642578125,-0.08599853515625
14.34,0.0014178669080138206,0.005508748814463615,-0.005309277679771185,-0.18310546875,0.9767303466796875,-0.0845794677734375
14.36,0.0005017395596951246,-0.01665913686156273,-0.0019502328941598535,-0.1812591552734375,0.976715087890625,-0.084869384765625
14.38,0.00008255799184553325,-0.017494039610028267,-0.0015329155139625072,-0.18182373046875,0.97247314453125,-0.0819549560546875
14.4,-0.0000977380113909021,-0.008462460711598396,0.0011765845119953156,-0.1790008544921875,0.975250244140625,-0.084381103515625
14.42,-0.000150202278746292,0.003620301140472293,0.001192829804494977,-0.1797637939453125,0.97760009765625,-0.085235595703125
14.44,-0.00589517317712307,-0.0004527373821474612,-0.0006599313346669078,-0.178802490234375,0.9783782958984375,-0.08587646484375
14.46,-0.009702694602310658,0.007642473094165325,-0.008488825522363186,-0.1800537109375,0.97308349609375,-0.0838623046875
14.48,-0.004326837603002787,0.026459570974111557,-0.007740477565675974,-0.182220458984375,0.975341796875,-0.0844268798828125
14.5,-0.006165750324726105,0.013040168210864067,-0.0023555660154670477,-0.180511474609375,0.978546142578125,-0.0872650146484375
14.52,-0.0020639498252421618,-0.0019257317762821913,-0.0013630058383569121,-0.182525634765625,0.9758148193359375,-0.083465576171875
14.54,0.002394714392721653,-0.013599698431789875,0.001413073274306953,-0.185821533203125,0.974578857421875,-0.0817413330078125
14.56,-0.0005179848521947861,-0.012114719487726688,-0.00959803257137537,-0.1886749267578125,0.974853515625,-0.0829620361328125
14.58,-0.009498696774244308,-0.004686897154897451,-0.01769404299557209,-0.1905364990234375,0.9719390869140625,-0.079376220703125
14.6,-0.01464791875332594,0.006186256650835276,-0.020495953038334846,-0.1887664794921875,0.972686767578125,-0.0786590576171875
14.62,-0.015571502968668938,0.006220611743628979,-0.01215546578168869,-0.1833953857421875,0.9775390625,-0.0841217041015625
14.64,-0.010763431899249554,-0.016320116817951202,-0.01498374342918396,-0.1810302734375,0.9754180908203125,-0.0840606689453125
14.66,0.0028304075822234154,-0.017173394560813904,-0.011255317367613316,-0.1777496337890625,0.9729766845703125,-0.0868377685546875
14.68,0.009367136284708977,0.0009179916232824326,-0.004604871850460768,-0.1766510009765625,0.97723388671875,-0.0887908935546875
14.7,0.00033422670094296336,0.002139583695679903,-0.00015339808305725455,-0.1763458251953125,0.9786834716796875,-0.0866546630859375
14.72,-0.0014775217277929187,0.014598383568227291,-0.0003989415417890996,-0.178070068359375,0.9760894775390625,-0.0831146240234375
14.74,-0.0007321029552258551,0.012837234884500504,0.006637396290898323,-0.1798248291015625,0.9754180908203125,-0.0831298828125
14.76,-0.0032772859558463097,-0.011987420730292797,0.0009534116834402084,-0.1875457763671875,0.9772491455078125,-0.082061767578125
14.78,-0.0017710020765662193,-0.026610838249325752,-0.0031364047899842262,-0.1905670166015625,0.9707489013671875,-0.07818603515625
14.8,-0.003489273600280285,-0.006054696626961231,-0.006216350477188826,-0.1917877197265625,0.973175048828125,-0.0783843994140625
14.82,-0.01284362655133009,0.010583668015897274,-0.013341105543076992,-0.1895599365234375,0.9761810302734375,-0.080047607421875
14.84,-0.009190035983920097,0.03495851531624794,-0.011394867673516273,-0.1865692138671875,0.97308349609375,-0.0810394287109375
14.86,-0.005352953914552927,0.019122295081615448,-0.011535216122865677,-0.1887664794921875,0.9733123779296875,-0.083465576171875
14.88,-0.006072539836168289,-0.01152829173952341,-0.010571418330073357,-0.189178466796875,0.9750518798828125,-0.0781402587890625
14.9,0.0035185683518648148,-0.014855911023914814,-0.006087986286729574,-0.1897125244140625,0.9748077392578125,-0.077392578125
14.92,-0.0009355684742331505,-0.022994264960289,-0.010688330978155136,-0.1900634765625,0.974090576171875,-0.078094482421875
14.94,-0.00896712951362133,-0.020382503047585487,-0.009594570845365524,-0.1875762939453125,0.9726409912109375,-0.075225830078125
14.96,-0.007155647501349449,-0.01389957033097744,-0.012140552513301373,-0.1863861083984375,0.9753875732421875,-0.077056884765625
14.98,-0.015490276739001274,-0.014795191586017609,-0.006360427476465702,-0.18426513671875,0.97607421875,-0.0795745849609375
15,-0.009680856950581074,0.0016263924771919847,-0.003624029690399766,-0.1802215576171875,0.974884033203125,-0.080810546875
15.02,-0.005939648021012545,0.006283728405833244,0.0020306603983044624,-0.1819610595703125,0.97845458984375,-0.085205078125
15.04,-0.002633333671838045,-0.014986672438681126,0.006395581178367138,-0.1833953857421875,0.977142333984375,-0.083251953125
15.06,0.005803826730698347,-0.026151176542043686,0.0036077843979001045,-0.1846466064453125,0.9708251953125,-0.0824432373046875
15.08,0.012262525036931038,-0.01798858866095543,0.0003249056462664157,-0.1906280517578125,0.9734649658203125,-0.08172607421875
15.1,0.0031217574141919613,-0.0026253440883010626,-0.0008034756756387651,-0.1895751953125,0.9760284423828125,-0.0806732177734375
15.12,-0.005272526293992996,0.013997840695083141,-0.009374060668051243,-0.1901397705078125,0.9731597900390625,-0.0790863037109375
15.14,-0.008950351737439632,0.020116453990340233,-0.017106017097830772,-0.1902008056640625,0.9730072021484375,-0.076995849609375
15.16,-0.0009843043517321348,0.028269454836845398,-0.009602293372154236,-0.1884765625,0.9748687744140625,-0.078857421875
15.18,-0.007908523082733154,0.011362376622855663,-0.004431500099599361,-0.1848602294921875,0.9765625,-0.07830810546875
15.2,-0.0051809134893119335,-0.003709783311933279,-0.0011408982099965215,-0.185028076171875,0.973907470703125,-0.0757598876953125
15.22,-0.005649097263813019,-0.0036722328513860703,-0.002575543010607362,-0.1853790283203125,0.9707183837890625,-0.0780181884765625
15.24,-0.010034524835646152,0.011717376299202442,-0.0009922938188537955,-0.188262939453125,0.97686767578125,-0.0785064697265625
15.26,-0.011204984039068222,0.016814133152365685,-0.0046754456125199795,-0.1893768310546875,0.977294921875,-0.077392578125
15.28,-0.002490588231012225,0.021381454542279243,-0.006955644115805626,-0.1912689208984375,0.970367431640625,-0.0778350830078125
15.3,-0.011634285561740398,0.010600978508591652,0.0014357101172208786,-0.19085693359375,0.9744110107421875,-0.077789306640625
15.32,-0.004185423720628023,0.009870207868516445,-0.008519718423485756,-0.1923370361328125,0.9748992919921875,-0.0739898681640625
15.34,-0.005365204066038132,0.012951218523085117,-0.0017739315517246723,-0.193328857421875,0.9715576171875,-0.07904052734375
15.36,-0.009141300804913044,0.0024413196370005608,0.0005768407136201859,-0.1894989013671875,0.973602294921875,-0.07537841796875
15.38,-0.003462375607341528,0.0003020024741999805,-0.0007012102869339287,-0.1921234130859375,0.974151611328125,-0.07489013671875
15.4,0.008902681060135365,0.0090555464848876,0.0033105756156146526,-0.1891632080078125,0.97406005859375,-0.07952880859375
15.42,0.004658135119825602,0.00809015054255724,0.002316950121894479,-0.1895751953125,0.9761962890625,-0.0803070068359375
15.44,0.002802178030833602,0.005142830312252045,-0.004231763072311878,-0.195831298828125,0.9715118408203125,-0.0746917724609375
15.46,-0.004553472623229027,0.0033190976828336716,-0.0010775149567052722,-0.196136474609375,0.9740142822265625,-0.0714263916015625
15.48,-0.005613677203655243,-0.012688098475337029,-0.005367601290345192,-0.196380615234375,0.9734344482421875,-0.0707244873046875
15.5,-0.0076272934675216675,-0.02684572897851467,-0.00657641002908349,-0.195709228515625,0.969879150390625,-0.073089599609375
15.52,-0.005036836490035057,-0.018702847883105278,-0.00016405072528868914,-0.191253662109375,0.9733428955078125,-0.0745849609375
15.54,0.005086903925985098,0.004069842863827944,0.0003866909828502685,-0.187530517578125,0.9785308837890625,-0.079345703125
15.56,0.004825381562113762,0.010155964642763138,-0.002008289797231555,-0.185791015625,0.9738006591796875,-0.08099365234375
15.58,0.0013323795283213258,0.0037766287568956614,0.007725297473371029,-0.1831207275390625,0.971343994140625,-0.0764617919921875
15.6,-0.0035305526107549667,-0.012411662377417088,0.011961321346461773,-0.1860504150390625,0.9750823974609375,-0.0754852294921875
15.62,0.012251073494553566,-0.010654508136212826,0.0015667376574128866,-0.193756103515625,0.973236083984375,-0.0770416259765625
15.64,0.008644354529678822,-0.012986638583242893,0.0006215817993506789,-0.1968994140625,0.97259521484375,-0.076812744140625
15.66,-0.006313555873930454,-0.006219279952347279,-0.004908738657832146,-0.1940155029296875,0.97259521484375,-0.073516845703125
15.68,-0.002341451123356819,0.014148576185107231,-0.005887982901185751,-0.1930389404296875,0.9727325439453125,-0.0757293701171875
15.7,0.007267500273883343,0.01369290892034769,-0.006258694920688868,-0.1894683837890625,0.9742889404296875,-0.0796661376953125
15.72,0.006082660052925348,0.006147907115519047,0.0017574200173839927,-0.1875762939453125,0.9764862060546875,-0.0789642333984375
15.74,0.004054396413266659,-0.004116980824619532,0.0009379653492942452,-0.18780517578125,0.9746551513671875,-0.0761871337890625
15.76,0.002669020090252161,-0.010558901354670525,-0.002329733222723007,-0.189300537109375,0.9724578857421875,-0.07440185546875
15.78,0.002576342085376382,0.0024588967207819223,0.0004572647449094802,-0.190399169921875,0.976348876953125,-0.076873779296875
15.8,-0.0036306874826550484,-0.002055427758023143,-0.0028421254828572273,-0.1880645751953125,0.9733123779296875,-0.07647705078125
15.82,0.0057590859942138195,0.015615710988640785,0.0014743260107934475,-0.1877593994140625,0.9752655029296875,-0.0755157470703125
15.84,0.0016026903176680207,0.0037971350830048323,0.005115665961056948,-0.185455322265625,0.9769439697265625,-0.0796051025390625
15.86,0.0030836742371320724,-0.002132392954081297,0.010450776666402817,-0.1865386962890625,0.974517822265625,-0.07476806640625
15.88,0.007933290675282478,-0.014366954565048218,0.011198592372238636,-0.190032958984375,0.9734649658203125,-0.07684326171875
15.9,0.006252569612115622,-0.020612068474292755,0.003971039317548275,-0.1932830810546875,0.974884033203125,-0.0761566162109375
15.92,0.007065366487950087,-0.007006776984781027,0.003614442190155387,-0.1952056884765625,0.9722747802734375,-0.07806396484375
15.94,0.00020373181905597448,0.00746164470911026,-0.0046730488538742065,-0.191192626953125,0.9731292724609375,-0.0773468017578125
15.96,-0.0035473306197673082,0.026583140715956688,-0.006363623309880495,-0.1913909912109375,0.9763031005859375,-0.0783538818359375
15.98,-0.002029328839853406,0.028861742466688156,-0.0017382452497258782,-0.1870269775390625,0.9739837646484375,-0.0799407958984375
16,0.005930859595537186,0.012416189536452293,0.010852647945284843,-0.1837005615234375,0.9753570556640625,-0.0789337158203125
16.02,0.008285893127322197,-0.011922972276806831,0.008476043120026588,-0.18670654296875,0.9742431640625,-0.0778045654296875
16.04,0.0119117870926857,-0.02774188295006752,0.007795604877173901,-0.19195556640625,0.973724365234375,-0.0776519775390625
16.06,0.010043845511972904,-0.01636006496846676,0.0021113541442900896,-0.192962646484375,0.9737701416015625,-0.075653076171875
16.08,-0.002419215627014637,0.009438775479793549,-0.0017723336350172758,-0.190826416015625,0.9745635986328125,-0.0780792236328125
16.1,-0.00640783179551363,0.028715800493955612,-0.004535097163170576,-0.1893768310546875,0.9738616943359375,-0.0792694091796875
16.12,-0.0012668657582253218,0.025897642597556114,0.005167065188288689,-0.1848907470703125,0.9733123779296875,-0.081024169921875
16.14,0.004071706905961037,0.009720005095005035,0.010353039018809795,-0.1837615966796875,0.97760009765625,-0.0814361572265625
16.16,0.00999164767563343,-0.004893558565527201,0.008284827694296837,-0.1872711181640625,0.97509765625,-0.0797576904296875
16.18,0.019285812973976135,0.0012405004817992449,0.0068214209750294685,-0.189666748046875,0.9733428955078125,-0.0793914794921875
16.2,0.007740743923932314,-0.0031880701426416636,0.0036163064651191235,-0.191680908203125,0.973968505859375,-0.07757568359375
16.22,0.007016630377620459,0.014764032326638699,0.003157177474349737,-0.1919403076171875,0.9732666015625,-0.075836181640625
16.24,0.0008037420338951051,0.020186761394143105,-0.0015795208746567369,-0.1920318603515625,0.97265625,-0.0773773193359375
16.26,-0.0003962783666793257,0.006322077941149473,-0.0028330706991255283,-0.1922760009765625,0.9738616943359375,-0.074249267578125
16.28,-0.0038250982761383057,-0.001261539408005774,-0.006696252152323723,-0.1917877197265625,0.974700927734375,-0.077667236328125
16.3,-0.006967362016439438,-0.0075753615237772465,-0.0005270395777188241,-0.189422607421875,0.9756011962890625,-0.0771636962890625
16.32,-0.002089249901473522,0.0037055222783237696,-0.0005392901366576552,-0.1836395263671875,0.9727783203125,-0.07855224609375
16.34,0.003742273896932602,0.014659103937447071,0.008946623653173447,-0.1822662353515625,0.974822998046875,-0.0844573974609375
16.36,0.007437409833073616,0.010942130349576473,0.014222611673176289,-0.1819305419921875,0.97607421875,-0.0840301513671875
16.38,0.010521350428462029,-0.0024141555186361074,0.016507869586348534,-0.1862945556640625,0.9730377197265625,-0.08251953125
16.4,0.010329869575798512,-0.010480071417987347,0.011590076610445976,-0.192138671875,0.9722137451171875,-0.0785980224609375
16.42,0.008737032301723957,-0.0008873652550391853,0.003674895968288183,-0.1969757080078125,0.9745635986328125,-0.079559326171875
16.44,0.0027981833554804325,0.010695787146687508,-0.007131146267056465,-0.1967010498046875,0.9755401611328125,-0.0763702392578125
16.46,-0.008738364093005657,0.012889700010418892,-0.00860307551920414,-0.19183349609375,0.9732513427734375,-0.076934814453125
16.48,-0.006509298458695412,0.013051353394985199,-0.001210939371958375,-0.184600830078125,0.97320556640625,-0.0788116455078125
16.5,-0.00015393071225844324,0.011889416724443436,0.00270657055079937,-0.1827545166015625,0.97198486328125,-0.0817718505859375
16.52,0.008318649604916573,0.003781156148761511,0.013126187957823277,-0.1822357177734375,0.9772186279296875,-0.08331298828125
16.54,0.00926487147808075,-0.006853645201772451,0.010967962443828583,-0.1847076416015625,0.9765777587890625,-0.082916259765625
16.56,0.01206784788519144,-0.0024743429385125637,0.012006329372525215,-0.1868438720703125,0.9737396240234375,-0.0801239013671875
16.58,0.00615136930719018,-0.009346630424261093,0.009337042458355427,-0.1884002685546875,0.9742279052734375,-0.0803985595703125
16.6,0.0026197514962404966,-0.006168147549033165,0.001886317040771246,-0.1929779052734375,0.9750823974609375,-0.0780792236328125
16.62,-0.001978995045647025,-0.005661880597472191,-0.002180862706154585,-0.1923828125,0.9693603515625,-0.079132080078125
16.64,-0.001960885478183627,0.009553291834890842,-0.0011856392957270145,-0.1898040771484375,0.9760589599609375,-0.080322265625
16.66,0.002401372417807579,0.01404764223843813,-0.0021638183388859034,-0.1839447021484375,0.974853515625,-0.08526611328125
16.68,-0.0014362427173182368,0.012293417938053608,0.008229433558881283,-0.18182373046875,0.97601318359375,-0.08526611328125
16.7,0.006529804784804583,0.0189603753387928,0.008973521180450916,-0.1777801513671875,0.9775848388671875,-0.084564208984375
16.72,0.011514975689351559,0.0172069501131773,0.012012454681098461,-0.1856842041015625,0.9770965576171875,-0.0838470458984375
16.74,0.014019944705069065,0.006255765445530415,0.006807572208344936,-0.1879119873046875,0.973388671875,-0.082977294921875
16.76,0.010871555656194687,-0.002831206424161792,0.006857906002551317,-0.1944427490234375,0.9731597900390625,-0.077911376953125
16.78,0.005658684764057398,0.007772435434162617,-0.002323075430467725,-0.1924285888671875,0.9745330810546875,-0.075775146484375
16.8,-0.00675297761335969,0.012260394170880318,-0.009606288745999336,-0.1965179443359375,0.9730072021484375,-0.076507568359375
16.82,-0.015623700805008411,0.00821771565824747,-0.011575429700314999,-0.192108154296875,0.973358154296875,-0.076019287109375
16.84,-0.011756258085370064,0.013766412623226643,-0.0007832356495782733,-0.18597412109375,0.973175048828125,-0.081573486328125
16.86,-0.0010671286145225167,0.010057161562144756,0.011051053181290627,-0.17822265625,0.975311279296875,-0.0867156982421875
16.88,0.013236976228654385,0.002481267089024186,0.014623950235545635,-0.1786346435546875,0.9796142578125,-0.0860443115234375
16.9,0.019053585827350616,-0.006691991351544857,0.013025254011154175,-0.1822052001953125,0.975341796875,-0.0864105224609375
16.92,0.014992265030741692,-0.002413356676697731,0.00911653321236372,-0.1854248046875,0.97503662109375,-0.0813751220703125
16.94,0.0031257520895451307,0.010095510631799698,0.0033992587123066187,-0.1925048828125,0.97442626953125,-0.0792999267578125
16.96,-0.005387042183429003,0.024357536807656288,-0.0021635519806295633,-0.192138671875,0.9737396240234375,-0.0763397216796875
16.98,-0.00698041170835495,0.014926484785974026,0.0041396175511181355,-0.1868743896484375,0.97308349609375,-0.0783843994140625
17,0.0021995047573000193,0.0017022925894707441,0.0029033781029284,-0.1883392333984375,0.9742431640625,-0.07879638671875
17.02,0.013313940726220608,0.0007597998483106494,0.0073255570605397224,-0.1862640380859375,0.9753265380859375,-0.08331298828125
17.04,0.008865662850439548,-0.00039947417099028826,0.004195543937385082,-0.18572998046875,0.9759979248046875,-0.084716796875
17.06,0.0030330740846693516,0.008580438792705536,0.0027441212441772223,-0.1865997314453125,0.973724365234375,-0.0793304443359375
17.08,-0.0017230651574209332,0.020738035440444946,0.003238936420530081,-0.1873016357421875,0.9754180908203125,-0.0820465087890625
17.1,-0.007724765222519636,0.007246727589517832,0.004611796233803034,-0.1854095458984375,0.9740447998046875,-0.0797882080078125
17.12,-0.00014940333494450897,-0.007743407040834427,0.0073167686350643635,-0.184234619140625,0.9756622314453125,-0.081298828125
17.14,0.00555295730009675,-0.019394470378756523,0.009928264655172825,-0.1836700439453125,0.97430419921875,-0.0858154296875
17.16,0.013892645947635174,-0.009613744914531708,0.00812317430973053,-0.183624267578125,0.9763031005859375,-0.0865325927734375
17.18,0.009398029185831547,-0.0013512879377231002,0.004941229242831469,-0.1837310791015625,0.973724365234375,-0.08624267578125
17.2,0.0067756143398582935,0.021826734766364098,0.0036972665693610907,-0.1832733154296875,0.973388671875,-0.0848541259765625
17.22,0.007482151035219431,0.042820967733860016,0.004495415836572647,-0.181427001953125,0.975555419921875,-0.0844268798828125
17.24,-0.001181644620373845,0.02232048474252224,0.008352738805115223,-0.1801605224609375,0.973419189453125,-0.0823516845703125
17.26,0.00624191714450717,0.005400091875344515,0.009881925769150257,-0.1833343505859375,0.9760589599609375,-0.0799407958984375
17.28,0.007396397180855274,-0.014698784798383713,0.008771653287112713,-0.1864013671875,0.975830078125,-0.083099365234375
17.3,0.006643521599471569,-0.02153165638446808,0.0007251787465065718,-0.1894378662109375,0.9745025634765625,-0.0811309814453125
17.32,-0.0014916365034878254,0.0018399780383333564,0.0032778186723589897,-0.1871337890625,0.9715728759765625,-0.08172607421875
17.34,-0.00017496968212071806,0.024705879390239716,-0.0023097596131265163,-0.1846160888671875,0.9752655029296875,-0.0828857421875
17.36,-0.0016966998809948564,0.020238691940903664,-0.003948136232793331,-0.184906005859375,0.97454833984375,-0.083984375
17.38,-0.0032487902790308,0.0028815402183681726,0.002086054068058729,-0.1832122802734375,0.9757843017578125,-0.08319091796875
17.4,-0.0038922098465263844,-0.02069063112139702,0.007840346544981003,-0.18109130859375,0.97247314453125,-0.0828399658203125
17.42,0.0033036512322723866,-0.018847458064556122,0.008805742487311363,-0.1799163818359375,0.974945068359375,-0.085906982421875
17.44,0.013709686696529388,-0.002624811604619026,0.008352472446858883,-0.1795501708984375,0.977081298828125,-0.090850830078125
17.46,0.010750382207334042,0.01128141675144434,0.0054277884773910046,-0.179595947265625,0.9758758544921875,-0.0886993408203125
17.48,0.011019627563655376,0.03249029815196991,0.008318383246660233,-0.179534912109375,0.977783203125,-0.0882110595703125
17.5,0.0023909860756248236,0.018996860831975937,0.00980469398200512,-0.18194580078125,0.975067138671875,-0.0857086181640625
17.52,-0.0005129248020239174,0.004732171073555946,0.0049345712177455425,-0.1876220703125,0.971954345703125,-0.0807342529296875
17.54,0.003865312086418271,-0.014368819072842598,0.0046160570345819,-0.1898040771484375,0.9747161865234375,-0.08099365234375
17.56,0.005306880921125412,-0.01255067903548479,-0.0006849650526419282,-0.1892547607421875,0.9742431640625,-0.08367919921875
17.58,0.0032173648942261934,0.006324208807200193,0.0006719155353493989,-0.1861114501953125,0.973052978515625,-0.0850982666015625
17.6,-0.00008415588672505692,0.022733541205525398,0.0009882990270853043,-0.18255615234375,0.9744720458984375,-0.0839385986328125
17.62,-0.0044378917664289474,0.015143000520765781,0.0030128341168165207,-0.1837615966796875,0.976898193359375,-0.0836181640625
17.64,0.0004367584188003093,0.006458165589720011,0.0015433018561452627,-0.1831207275390625,0.975067138671875,-0.084564208984375
17.66,0.0019747340120375156,-0.010614028200507164,-0.0008149272762238979,-0.1839599609375,0.975494384765625,-0.0842437744140625
17.68,0.0020722055342048407,-0.010483001358807087,0.0023848607670515776,-0.1839141845703125,0.9749755859375,-0.0826416015625
17.7,-0.003462908323854208,-0.013768276199698448,0.007299458142369986,-0.1826629638671875,0.9743194580078125,-0.0851287841796875
17.72,-0.003450924064964056,-0.009527458809316158,0.007249923422932625,-0.181396484375,0.9764404296875,-0.0841217041015625
17.74,0.006863764952868223,0.007878162898123264,0.00304692261852324,-0.182769775390625,0.9739990234375,-0.0865478515625
17.76,0.007668039761483669,0.016868462786078453,0.001333178486675024,-0.1811981201171875,0.9749298095703125,-0.0868682861328125
17.78,-0.00546240946277976,0.01272618118673563,0.003953196108341217,-0.181671142578125,0.97528076171875,-0.0831298828125
17.8,-0.012012987397611141,-0.00030599720776081085,0.006370814051479101,-0.180572509765625,0.9748992919921875,-0.08447265625
17.82,0.0021728731226176023,0.0054674698039889336,0.0073511237278580666,-0.18035888671875,0.9755096435546875,-0.0868377685546875
17.84,0.01173415407538414,0.007122357841581106,0.009572998620569706,-0.1799468994140625,0.97589111328125,-0.09112548828125
17.86,0.013292103074491024,0.0034408040810376406,0.009074455127120018,-0.1825714111328125,0.9741668701171875,-0.088287353515625
17.88,0.00797270517796278,0.010547716170549393,0.003174487967044115,-0.1840972900390625,0.9751434326171875,-0.083251953125
17.9,-0.0028852687682956457,0.021040836349129677,-0.0062887887470424175,-0.191314697265625,0.9751129150390625,-0.082366943359375
17.92,-0.009709352627396584,0.01780216582119465,-0.011662248522043228,-0.1898651123046875,0.9749908447265625,-0.07952880859375
17.94,-0.01799284853041172,0.005363872740417719,-0.01468653418123722,-0.1902313232421875,0.9736785888671875,-0.0775604248046875
17.96,-0.011583419516682625,0.0032202943693846464,-0.00896792858839035,-0.1858062744140625,0.975372314453125,-0.08001708984375
17.98,-0.01864532381296158,-0.012985839508473873,-0.006247509736567736,-0.1798248291015625,0.9758453369140625,-0.086700439453125
18,-0.018158230930566788,-0.0010181264951825142,-0.010224142111837864,-0.1789093017578125,0.9722747802734375,-0.0842742919921875
18.02,-0.005131112411618233,0.017344102263450623,-0.0024146882351487875,-0.176666259765625,0.9792938232421875,-0.0908660888671875
18.04,-0.004734035115689039,0.00047058056225068867,-0.004596616141498089,-0.1741180419921875,0.975860595703125,-0.0932464599609375
18.06,0.008467254228889942,0.015237010084092617,0.012071044184267521,-0.174102783203125,0.9804840087890625,-0.0910797119140625
18.08,0.007702128030359745,0.005367334932088852,0.013572001829743385,-0.1714019775390625,0.9767303466796875,-0.0908660888671875
18.1,0.0027390611357986927,-0.0010980212828144431,0.015412778593599796,-0.1798858642578125,0.975616455078125,-0.0850830078125
18.12,-0.00452817277982831,-0.0003028014034498483,-0.0032796829473227262,-0.1870574951171875,0.97222900390625,-0.0825653076171875
18.14,-0.010145045816898346,0.004022438544780016,-0.010005230084061623,-0.19158935546875,0.9735565185546875,-0.08038330078125
18.16,-0.009681922383606434,0.015918245539069176,-0.015075888484716415,-0.1878509521484375,0.974456787109375,-0.080963134765625
18.18,-0.011202853173017502,0.021642711013555527,-0.009150621481239796,-0.184417724609375,0.974822998046875,-0.08233642578125
18.2,-0.007158044259995222,0.012773851864039898,-0.005474660079926252,-0.17962646484375,0.9745941162109375,-0.0847015380859375
18.22,0.00296250032261014,0.0036842171102762222,0.0010823087068274617,-0.18267822265625,0.979278564453125,-0.084442138671875
18.24,-0.005245628301054239,-0.023866983130574226,-0.0044261738657951355,-0.1826324462890625,0.976531982421875,-0.0821075439453125
18.26,-0.00830773077905178,-0.028902754187583923,-0.0033864756114780903,-0.184417724609375,0.9745635986328125,-0.080047607421875
18.28,-0.015957128256559372,-0.013366937637329102,-0.0013145363191142678,-0.1800537109375,0.9722747802734375,-0.0811004638671875
18.3,-0.015599732287228107,0.003322559641674161,-0.005367334932088852,-0.181121826171875,0.9771881103515625,-0.0836181640625
18.32,-0.0007339671719819307,0.02057771384716034,-0.005313006229698658,-0.1787567138671875,0.9765625,-0.08905029296875
18.34,-0.0022447784431278706,0.010011621750891209,0.004315119702368975,-0.1740875244140625,0.9729461669921875,-0.0879364013671875
18.36,0.0024588967207819223,-0.00891120359301567,0.010392453521490097,-0.1744537353515625,0.974761962890625,-0.086883544921875
18.38,0.005016862880438566,-0.017824536189436913,0.010896323248744011,-0.1800689697265625,0.9760589599609375,-0.0861053466796875
18.4,0.012534433975815773,-0.007748999632894993,0.002246376359835267,-0.184112548828125,0.975830078125,-0.0840606689453125
18.42,0.012115252204239368,-0.0085426215082407,0.000024767397917457856,-0.1871337890625,0.97381591796875,-0.084503173828125
18.44,-0.0037476003635674715,-0.0005270395777188241,-0.0054581486620008945,-0.18695068359375,0.9770660400390625,-0.0792388916015625
18.46,-0.009542904794216156,0.010852115228772163,-0.010296845808625221,-0.1879730224609375,0.9735260009765625,-0.078643798828125
18.48,-0.012359198182821274,0.008718656376004219,-0.016574449837207794,-0.1853485107421875,0.9717254638671875,-0.081024169921875
18.5,-0.0049068741500377655,0.0015041533624753356,-0.01041349209845066,-0.181304931640625,0.976287841796875,-0.08245849609375
18.52,0.004046939779073,-0.005646700505167246,0.0019214707426726818,-0.17767333984375,0.9767303466796875,-0.0847930908203125
18.54,0.013919809833168983,-0.001868207473307848,-0.004508997779339552,-0.1753387451171875,0.9738922119140625,-0.0896453857421875
18.56,0.016341688111424446,0.009520800784230232,0.009030512534081936,-0.1781463623046875,0.9789886474609375,-0.08648681640625
18.58,0.0005270395777188241,-0.00009028115891851485,0.009541839361190796,-0.177337646484375,0.9769287109375,-0.0819549560546875
18.6,0.0030485205352306366,0.005540440324693918,0.0031704932916909456,-0.183990478515625,0.9709625244140625,-0.0775604248046875
18.62,0.004229099955409765,-0.005155880004167557,0.003959321416914463,-0.186492919921875,0.974334716796875,-0.08135986328125
18.64,0.002237055217847228,-0.014771489426493645,-0.0036794233601540327,-0.190704345703125,0.9762115478515625,-0.077667236328125
18.66,-0.0070283482782542706,-0.003796602366492152,-0.005858688149601221,-0.1898345947265625,0.971099853515625,-0.0804290771484375
18.68,-0.008435030467808247,0.013256949372589588,-0.014254037290811539,-0.1869049072265625,0.971710205078125,-0.080291748046875
18.7,-0.002838397165760398,0.029382921755313873,-0.012400477193295956,-0.1849212646484375,0.976470947265625,-0.0841522216796875
18.72,-0.005061337724328041,0.025888321921229362,-0.0033878071699291468,-0.1766510009765625,0.973968505859375,-0.088134765625
18.74,0.00443842401728034,0.018802449107170105,-0.00018375810759607702,-0.1748046875,0.975982666015625,-0.0852508544921875
18.76,0.01624927669763565,0.015349661000072956,0.00771704176440835,-0.177001953125,0.976318359375,-0.0887451171875
18.78,0.01369157712906599,0.0028240159153938293,0.016459133476018906,-0.1781158447265625,0.9748077392578125,-0.084930419921875
18.8,0.008682438172399998,-0.011402323842048645,0.013672136701643467,-0.182830810546875,0.9769287109375,-0.08160400390625
18.82,0.003689010627567768,-0.009464075788855553,0.009157545864582062,-0.1881561279296875,0.97088623046875,-0.079833984375
18.84,0.0008170577930286527,0.011632953770458698,0.0041553303599357605,-0.189605712890625,0.9720001220703125,-0.07891845703125
18.86,-0.00021731393644586205,0.026879550889134407,-0.0033220271579921246,-0.1912841796875,0.9776458740234375,-0.0796356201171875
18.88,0.0007219829712994397,0.012716327793896198,0.00037976677413098514,-0.1891326904296875,0.9740753173828125,-0.080413818359375
18.9,0.0021281319204717875,0.002891926560550928,0.010885670781135559,-0.1880950927734375,0.9746551513671875,-0.07916259765625
18.92,0.011258247308433056,-0.020430706441402435,0.004381432663649321,-0.18841552734375,0.9741668701171875,-0.07965087890625
18.94,0.01648017391562462,-0.027652932330965996,-0.006935404147952795,-0.1952056884765625,0.9720306396484375,-0.0788726806640625
18.96,0.004579837899655104,-0.028870796784758568,-0.008671252056956291,-0.19635009765625,0.97308349609375,-0.0776824951171875
18.98,-0.0013070794520899653,-0.011379953473806381,-0.015623700805008411,-0.194854736328125,0.97308349609375,-0.07562255859375
19,-0.008541024290025234,-0.0009241168736480176,-0.02377750165760517,-0.192626953125,0.9730377197265625,-0.0775909423828125
19.02,-0.01570359617471695,-0.004363589454442263,-0.020387031137943268,-0.190826416015625,0.9770050048828125,-0.0798492431640625
19.04,-0.009336243383586407,-0.013377857394516468,-0.017008811235427856,-0.1848907470703125,0.975067138671875,-0.080169677734375
19.06,-0.001395496423356235,-0.02930595725774765,-0.007351389620453119,-0.1824188232421875,0.97430419921875,-0.08197021484375
19.08,-0.0014183996245265007,-0.054118361324071884,-0.0004809668753296137,-0.179046630859375,0.9751434326171875,-0.0846099853515625
19.1,0.003294330323114991,-0.05008633807301521,0.0005914880894124508,-0.1812896728515625,0.9754486083984375,-0.0832672119140625
19.12,0.0023672839161008596,-0.039133552461862564,-0.0049795787781476974,-0.18414306640625,0.9728851318359375,-0.084625244140625
19.14,-0.0017963021527975798,-0.017911089584231377,-0.013345099985599518,-0.188720703125,0.9755859375,-0.0834808349609375
19.16,-0.008796420879662037,0.004237622022628784,-0.015467639081180096,-0.18841552734375,0.976654052734375,-0.0851287841796875
19.18,-0.022362031042575836,0.010527475737035275,-0.02329094149172306,-0.1833648681640625,0.97137451171875,-0.083038330078125
19.2,-0.006473878398537636,0.026007099077105522,-0.012060923501849174,-0.181671142578125,0.9742889404296875,-0.0854644775390625
19.22,0.004865328781306744,0.005644570104777813,-0.0011249192757532,-0.1761322021484375,0.9784088134765625,-0.0897979736328125
19.24,0.005303951445966959,-0.0229354090988636,-0.0031217574141919613,-0.1788330078125,0.9736328125,-0.0853118896484375
19.26,0.014542990364134312,0.0023180153220891953,-0.003570233704522252,-0.1829376220703125,0.9742431640625,-0.08575439453125
19.28,0.0011124024167656898,0.020677847787737846,-0.00436065997928381,-0.18353271484375,0.9766845703125,-0.0864410400390625
19.3,-0.011205516755580902,0.036493562161922455,-0.017798705026507378,-0.1854705810546875,0.9743499755859375,-0.0803985595703125
19.32,-0.016103869304060936,0.03929920122027397,-0.011582354083657265,-0.1875457763671875,0.974273681640625,-0.0815277099609375
19.34,-0.010892595164477825,0.015960590913891792,-0.007354319095611572,-0.1838531494140625,0.9759368896484375,-0.080596923828125
19.36,0.004072505980730057,0.0030418625101447105,-0.002816559048369527,-0.186614990234375,0.9745941162109375,-0.0836639404296875
19.38,0.00010199906682828441,-0.016400810331106186,-0.008007592521607876,-0.187286376953125,0.9749755859375,-0.0832366943359375
19.4,-0.001805623178370297,0.0015190670965239406,-0.01158554945141077,-0.1901397705078125,0.973876953125,-0.077056884765625
19.42,-0.01113441027700901,0.04641543701291084,-0.012223643250763416,-0.18603515625,0.971923828125,-0.0823516845703125
19.44,-0.027150394394993782,0.03935566172003746,-0.010717892087996006,-0.1846466064453125,0.9757537841796875,-0.0808563232421875
19.46,-0.018868230283260345,0.029805032536387444,-0.010011089034378529,-0.1866607666015625,0.9763946533203125,-0.080322265625
19.48,-0.0003067961661145091,0.01392886508256197,-0.006019542925059795,-0.1855316162109375,0.9738006591796875,-0.0830535888671875
19.5,-0.0009576727170497179,-0.00583844818174839,-0.006982275750488043,-0.1902313232421875,0.977386474609375,-0.0817718505859375
19.52,-0.005440305452793837,-0.004419249482452869,-0.006157760974019766,-0.1901702880859375,0.97479248046875,-0.078277587890625
19.54,-0.00941933412104845,0.0040972731076180935,-0.007555121555924416,-0.1899261474609375,0.971466064453125,-0.0776519775390625
19.56,-0.01643356867134571,0.005314338020980358,-0.012170912697911263,-0.193145751953125,0.9735565185546875,-0.0775299072265625
19.58,-0.018997393548488617,0.0062429821118712425,-0.011364773847162724,-0.193084716796875,0.9759979248046875,-0.077606201171875
19.6,-0.014787201769649982,0.006856041960418224,-0.009198558516800404,-0.189422607421875,0.9729156494140625,-0.080413818359375
19.62,-0.011240137740969658,-0.002947852946817875,-0.0035268242936581373,-0.1878814697265625,0.9735260009765625,-0.0826263427734375
19.64,-0.015019429847598076,-0.023251792415976524,-0.002210689941421151,-0.1876068115234375,0.9746246337890625,-0.0823822021484375
19.66,-0.003997670952230692,-0.016259396448731422,-0.0010351707460358739,-0.190643310546875,0.9728546142578125,-0.0820465087890625
19.68,-0.0021939121652394533,-0.020984111353754997,-0.0025180187076330185,-0.189697265625,0.9719085693359375,-0.084014892578125
19.7,-0.0021017666440457106,-0.007389206904917955,-0.0022951122373342514,-0.1922607421875,0.97613525390625,-0.083831787109375
19.72,0.001014398061670363,0.007422496099025011,-0.002697782125324011,-0.1912841796875,0.97503662109375,-0.081634521484375
19.74,-0.003977697342634201,0.015546735376119614,-0.006244313903152943,-0.190673828125,0.972869873046875,-0.0804290771484375
19.76,-0.0027294738683849573,0.003930026665329933,-0.008889897726476192,-0.1911773681640625,0.97357177734375,-0.08038330078125
19.78,-0.005751628894358873,-0.008636897429823875,-0.006856841035187244,-0.1884002685546875,0.9713897705078125,-0.07794189453125
19.8,-0.009576194919645786,-0.011869709007441998,-0.0037558560725301504,-0.18426513671875,0.9727630615234375,-0.0804443359375
19.82,0.003985154442489147,0.013039635494351387,0.003643736941739917,-0.1835174560546875,0.9780426025390625,-0.0833740234375
19.84,0.0007099987124092877,0.021351628005504608,0.00503896689042449,-0.18426513671875,0.9770355224609375,-0.082427978515625
19.86,0.00469435378909111,0.024996429681777954,0.004883438348770142,-0.189697265625,0.976348876953125,-0.07928466796875
19.88,-0.0062610916793346405,0.02328428439795971,-0.0017438378417864442,-0.1949310302734375,0.9734039306640625,-0.075286865234375
19.9,-0.022277075797319412,-0.0036847495939582586,-0.008393751457333565,-0.20135498046875,0.9697418212890625,-0.0693206787109375
19.92,-0.03254782408475876,-0.025015337392687798,-0.010450510308146477,-0.202301025390625,0.967498779296875,-0.06732177734375
19.94,-0.023035811260342598,-0.006947921123355627,-0.01775849051773548,-0.2014312744140625,0.973388671875,-0.071197509765625
19.96,-0.008531702682375908,0.01992017775774002,-0.01619388349354267,-0.1963043212890625,0.9759674072265625,-0.0807037353515625
19.98,-0.009486978873610497,0.027451863512396812,-0.016534235328435898,-0.19183349609375,0.9742889404296875,-0.08087158203125
20,-0.0125818382948637,0.026325080543756485,-0.0055180699564516544,-0.189697265625,0.9730072021484375,-0.07867431640625
20.02,0.004137753508985043,0.02743402123451233,-0.004425108432769775,-0.1915283203125,0.97174072265625,-0.07794189453125
20.04,0.006225937977433205,0.0008077367674559355,-0.00526666734367609,-0.19769287109375,0.9725189208984375,-0.078399658203125
20.06,-0.002680737990885973,-0.02701590396463871,-0.0005137237603776157,-0.1978607177734375,0.9704437255859375,-0.0730438232421875
20.08,-0.0003757720405701548,-0.014495053328573704,-0.0067817396484315395,-0.197723388671875,0.9702301025390625,-0.07183837890625
20.1,-0.000568052229937166,0.004524177871644497,-0.009793508797883987,-0.20001220703125,0.97332763671875,-0.0730743408203125
20.12,-0.008360727690160275,0.0033949976786971092,-0.009515208192169666,-0.199859619140625,0.97467041015625,-0.072540283203125
20.14,-0.01187982875853777,-0.0013571468880400062,-0.014769891276955605,-0.2005615234375,0.9731597900390625,-0.0709991455078125
20.16,-0.015064170584082603,-0.007653925102204084,-0.010874751955270767,-0.198089599609375,0.9720306396484375,-0.0725555419921875
20.18,-0.0156487338244915,-0.016732107847929,-0.013363475911319256,-0.1947479248046875,0.9696807861328125,-0.073699951171875
20.2,-0.005094094667583704,-0.022304773330688477,-0.005025384947657585,-0.1927947998046875,0.9735260009765625,-0.077484130859375
20.22,-0.0044168527238070965,-0.026881415396928787,0.003756654914468527,-0.1897735595703125,0.973419189453125,-0.0788726806640625
20.24,0.0009835053933784366,-0.02142433263361454,0.0041310954838991165,-0.190704345703125,0.97357177734375,-0.081512451171875
20.26,0.009671003557741642,-0.014826083555817604,0.004466920159757137,-0.1937713623046875,0.972503662109375,-0.080322265625
20.28,0.0015102786710485816,-0.010522948578000069,0.0035033884923905134,-0.1947479248046875,0.9752197265625,-0.0780792236328125
20.3,0.0019060244085267186,0.0005736448802053928,-0.006216350477188826,-0.1980743408203125,0.97283935546875,-0.0737762451171875
20.32,0.00038748994120396674,0.01522662304341793,-0.0030333404429256916,-0.1992950439453125,0.9730377197265625,-0.0734100341796875
20.34,-0.00720518222078681,0.004244812298566103,-0.008782572112977505,-0.1975250244140625,0.970733642578125,-0.071258544921875
20.36,-0.011345332488417625,-0.004628840368241072,-0.0073135728016495705,-0.1989898681640625,0.9710235595703125,-0.0700531005859375
20.38,-0.0037494644057005644,-0.004857605788856745,-0.00711729796603322,-0.1948089599609375,0.971893310546875,-0.07177734375
20.4,0.002163019496947527,0.010266219265758991,-0.002775280037894845,-0.192626953125,0.9759979248046875,-0.07586669921875
20.42,-0.003622697899118066,-0.00009986854274757206,0.005828061606734991,-0.192413330078125,0.9755401611328125,-0.076751708984375
20.44,-0.004345746245235205,-0.014660435728728771,0.015282549895346165,-0.1878509521484375,0.97479248046875,-0.072235107421875
20.46,0.009778594598174095,-0.021265607327222824,0.01769191212952137,-0.1913604736328125,0.9719390869140625,-0.07415771484375
20.48,0.011463310569524765,-0.03519260883331299,0.010147176682949066,-0.1970672607421875,0.9733428955078125,-0.073486328125
20.5,0.0016207997687160969,-0.01944160833954811,-0.004602208733558655,-0.2028961181640625,0.9731292724609375,-0.070159912109375
20.52,-0.0008799084462225437,0.019085809588432312,-0.005733785685151815,-0.2000274658203125,0.971710205078125,-0.070281982421875
20.54,-0.007801730185747147,0.03164687380194664,-0.001127316034398973,-0.193389892578125,0.971405029296875,-0.072601318359375
20.56,-0.008555937558412552,0.010913101024925709,-0.0005454153870232403,-0.195220947265625,0.9761505126953125,-0.0709991455078125
20.58,0.004060255363583565,-0.010627876967191696,0.003316967049613595,-0.1964569091796875,0.973663330078125,-0.0724029541015625
20.6,0.013440974056720734,-0.01013918686658144,-0.0015877765836194158,-0.1971282958984375,0.9729461669921875,-0.073211669921875
20.62,-0.00001944107498275116,-0.015282017178833485,-0.004740426782518625,-0.1977386474609375,0.9738922119140625,-0.07196044921875
20.64,-0.01089552417397499,0.0028099012561142445,-0.001927595934830606,-0.1928558349609375,0.9735565185546875,-0.0702972412109375
20.66,-0.011121360585093498,0.02148318849503994,0.004862932022660971,-0.190704345703125,0.973236083984375,-0.07354736328125
20.68,-0.013483584858477116,0.01360395923256874,0.007892278023064137,-0.1898193359375,0.977691650390625,-0.0767364501953125
20.7,-0.00637880340218544,0.00523604080080986,0.011326956562697887,-0.1905517578125,0.971710205078125,-0.077880859375
20.72,0.001776594785042107,-0.0051966262981295586,0.021825138479471207,-0.1903228759765625,0.9738616943359375,-0.0776214599609375
20.74,0.011952533386647701,-0.007269097957760096,0.008509865030646324,-0.1931610107421875,0.9730072021484375,-0.081085205078125
20.76,0.011990349739789963,0.006601709872484207,0.009814813733100891,-0.19732666015625,0.9730377197265625,-0.0791473388671875
20.78,0.004058391321450472,0.009197493083775043,0.0027355989441275597,-0.1960601806640625,0.970611572265625,-0.0765838623046875
20.8,0.005873868241906166,0.033367276191711426,-0.007018494885414839,-0.19927978515625,0.9736480712890625,-0.0739288330078125
20.82,0.0005531385540962219,0.04325985535979271,-0.009240103885531425,-0.2011871337890625,0.9771270751953125,-0.0740966796875
20.84,-0.015291604213416576,0.031977374106645584,-0.01278716791421175,-0.1967620849609375,0.9723358154296875,-0.07171630859375
20.86,-0.012322179973125458,0.023137543350458145,0.005718073341995478,-0.1907958984375,0.9687957763671875,-0.0713043212890625
20.88,-0.001606685109436512,-0.004537493921816349,0.011575962416827679,-0.1868743896484375,0.9758148193359375,-0.0762481689453125
20.9,0.011522432789206505,-0.018305238336324692,0.010910704731941223,-0.1930694580078125,0.9779510498046875,-0.0761260986328125
20.92,0.008340221829712391,-0.012771455571055412,0.004279966000467539,-0.1970977783203125,0.9753570556640625,-0.075592041015625
20.94,-0.0063037024810910225,0.010895790532231331,-0.0006447513005696237,-0.1980438232421875,0.9712066650390625,-0.0723724365234375
20.96,-0.015274027362465858,0.02340545691549778,-0.0026618295814841986,-0.197723388671875,0.97344970703125,-0.0715179443359375
20.98,-0.01744210720062256,0.011796205304563046,-0.0037494644057005644,-0.1978607177734375,0.972137451171875,-0.07275390625
21,0.004459463059902191,-0.002255697501823306,-0.0009922938188537955,-0.1958160400390625,0.972869873046875,-0.0746002197265625
21.02,0.013345632702112198,-0.0008671252289786935,0.003501790575683117,-0.1936492919921875,0.9731903076171875,-0.0762176513671875
21.04,0.004700745455920696,-0.009416405111551285,0.00509835546836257,-0.18890380859375,0.9766693115234375,-0.0764007568359375
21.06,-0.005300755612552166,0.007881359197199345,0.008464058861136436,-0.188079833984375,0.971343994140625,-0.072113037109375
21.08,-0.009763414971530437,0.011868643574416637,0.012942430563271046,-0.1874542236328125,0.9732666015625,-0.074859619140625
21.1,0.006286657880991697,0.006698648910969496,0.017659952864050865,-0.19097900390625,0.97637939453125,-0.0764923095703125
21.12,0.016219183802604675,-0.01272644754499197,0.013166136108338833,-0.1948699951171875,0.9757537841796875,-0.07611083984375
21.14,0.009896572679281235,-0.019774770364165306,-0.000333161442540586,-0.199951171875,0.974517822265625,-0.070465087890625
21.16,-0.003500991500914097,-0.007466438226401806,-0.0019379822770133615,-0.2007293701171875,0.9713592529296875,-0.0693206787109375
21.18,-0.019363045692443848,0.005606486462056637,-0.010970626026391983,-0.19549560546875,0.9696807861328125,-0.066986083984375
21.2,-0.016229303553700447,0.015488412231206894,-0.004314321093261242,-0.1941070556640625,0.9756622314453125,-0.072113037109375
21.22,-0.010142648592591286,-0.000023169501218944788,-0.00022423815971706063,-0.1875,0.9756927490234375,-0.076416015625
21.24,0.006342317909002304,-0.013769607990980148,0.005517537239938974,-0.189483642578125,0.9745025634765625,-0.079498291015625
21.26,0.008420116268098354,-0.02087412215769291,0.006387591827660799,-0.1875,0.97674560546875,-0.0811004638671875
21.28,0.0005062668933533132,-0.02195722982287407,0.005044027231633663,-0.1876373291015625,0.972747802734375,-0.076171875
21.3,-0.0005723133217543364,0.003222425002604723,0.011022024787962437,-0.1852264404296875,0.9708404541015625,-0.07574462890625
21.32,-0.00013448962999973446,0.031030086800456047,0.008113586343824863,-0.1873931884765625,0.978851318359375,-0.079254150390625
21.34,0.006611031014472246,0.02575969137251377,0.0035712989047169685,-0.19110107421875,0.9755096435546875,-0.077056884765625
21.36,0.001814677962101996,0.002162220422178507,0.003629089565947652,-0.1937255859375,0.9704437255859375,-0.0731201171875
21.38,0.006946855690330267,-0.0076059880666434765,0.005468002520501614,-0.197540283203125,0.9748077392578125,-0.0697479248046875
21.4,0.0034320156555622816,-0.006756706163287163,-0.005161206237971783,-0.19525146484375,0.9741363525390625,-0.07012939453125
21.42,-0.001966211711987853,0.003778226673603058,-0.0068272799253463745,-0.1980133056640625,0.9732513427734375,-0.0707244873046875
21.44,-0.01643010601401329,0.005557750817388296,-0.009600695222616196,-0.19390869140625,0.972442626953125,-0.068817138671875
21.46,-0.01411448698490858,0.009980196133255959,-0.005927397403866053,-0.1935577392578125,0.9761505126953125,-0.0716400146484375
21.48,-0.009661681950092316,0.002764361212030053,-0.002811232814565301,-0.18865966796875,0.972930908203125,-0.076080322265625
21.5,0.004513525404036045,-0.000245543458731845,0.0009321063989773393,-0.1885528564453125,0.9759368896484375,-0.0764312744140625
21.52,0.0059993029572069645,-0.006134325172752142,0.005172657780349255,-0.1879119873046875,0.9743499755859375,-0.07696533203125
21.54,0.0021968416403979063,-0.01907622255384922,0.005131112411618233,-0.190673828125,0.971893310546875,-0.0745391845703125
21.56,-0.0009552759001962841,-0.015103052370250225,-0.00011371697473805398,-0.1961669921875,0.9702301025390625,-0.071380615234375
21.58,-0.007096525281667709,-0.005685849115252495,-0.0025992451701313257,-0.198211669921875,0.97589111328125,-0.072021484375
21.6,-0.012118981219828129,-0.00023276027059182525,-0.006486129015684128,-0.1929473876953125,0.9732513427734375,-0.0724334716796875
21.62,-0.0065404572524130344,0.015690280124545097,-0.0039017973467707634,-0.1891326904296875,0.972869873046875,-0.074859619140625
21.64,0.0046725161373615265,0.01847035437822342,0.0014647386269643903,-0.187408447265625,0.975555419921875,-0.0789337158203125
21.66,0.008611331693828106,0.01895824447274208,0.0016655409708619118,-0.1889801025390625,0.97613525390625,-0.0760955810546875
21.68,0.010527475737035275,0.007339139468967915,0.004034689161926508,-0.19195556640625,0.972808837890625,-0.074127197265625
21.7,0.00945155881345272,-0.004807804711163044,0.0048826392740011215,-0.1953887939453125,0.9749755859375,-0.06964111328125
21.72,-0.004728176165372133,-0.024347683414816856,-0.0007744472241029143,-0.1983184814453125,0.9748687744140625,-0.068511962890625
21.74,-0.004284759983420372,-0.007910653948783875,-0.014133129268884659,-0.201812744140625,0.971893310546875,-0.066253662109375
21.76,-0.016463128849864006,0.0020722055342048407,-0.011004714295268059,-0.1994781494140625,0.9718780517578125,-0.06707763671875
21.78,-0.021320467814803123,0.002329200739040971,-0.007523163687437773,-0.1915283203125,0.974578857421875,-0.0707550048828125
21.8,-0.007771636825054884,0.004021639470010996,0.003721501212567091,-0.1879425048828125,0.9752349853515625,-0.0736846923828125
21.82,0.011147459968924522,0.011777031235396862,0.006897054612636566,-0.1843719482421875,0.9765777587890625,-0.07904052734375
21.84,0.010718424804508686,-0.013600231148302555,0.007328220177441835,-0.189727783203125,0.9760894775390625,-0.078369140625
21.86,0.005502623505890369,-0.014132330194115639,0.004285824950784445,-0.1940460205078125,0.972625732421875,-0.0722503662109375
21.88,0.003855458227917552,0.013128052465617657,-0.005011270288378,-0.1965789794921875,0.968475341796875,-0.07183837890625
21.9,-0.0014863101532682776,0.02231755666434765,-0.010455836541950703,-0.2026824951171875,0.9719085693359375,-0.072357177734375
21.92,-0.01182363647967577,0.006792658474296331,-0.01287638396024704,-0.2010498046875,0.9737548828125,-0.0686798095703125
21.94,-0.006797718815505505,0.011168498545885086,-0.010381001979112625,-0.19775390625,0.974609375,-0.070526123046875
21.96,0.0026133600622415543,0.01221432164311409,-0.013001020066440105,-0.1929779052734375,0.970916748046875,-0.074249267578125
21.98,0.0031433289404958487,0.0068179587833583355,-0.0010295780375599861,-0.1888885498046875,0.9757232666015625,-0.0752716064453125
22,0.007961253635585308,-0.003357979701831937,0.005615274887531996,-0.1864013671875,0.974639892578125,-0.0753326416015625
22.02,0.015324095264077187,-0.002493784064427018,0.00950641930103302,-0.188812255859375,0.97308349609375,-0.0742645263671875
22.04,0.010706706903874874,-0.011143198236823082,0.008229966275393963,-0.193359375,0.9762420654296875,-0.0736236572265625
22.06,-0.001677791471593082,-0.016885505989193916,0.0013598100049421191,-0.19793701171875,0.973907470703125,-0.0693206787109375
22.08,-0.0016759273130446672,0.003486876841634512,0.002141980454325676,-0.197296142578125,0.971160888671875,-0.0682373046875
22.1,-0.002407231368124485,0.011023622937500477,-0.002644518855959177,-0.1966705322265625,0.9741058349609375,-0.0729217529296875
22.12,0.0033047166652977467,0.009520800784230232,0.001002413802780211,-0.19793701171875,0.9741973876953125,-0.0703582763671875
22.14,0.008233162574470043,0.007643804885447025,0.0018152105621993542,-0.196136474609375,0.9737548828125,-0.07269287109375
22.16,0.0007560714147984982,-0.009985788725316525,-0.0010575412306934595,-0.1980133056640625,0.97113037109375,-0.0697479248046875
22.18,-0.00541314110159874,-0.0072837453335523605,0.00070520507870242,-0.197784423828125,0.97454833984375,-0.0690155029296875
22.2,-0.0007882956997491419,0.003436543047428131,-0.005553489550948143,-0.1981048583984375,0.9748382568359375,-0.0717620849609375
22.22,0.0036932716611772776,0.01131017878651619,-0.0070310113951563835,-0.1972503662109375,0.975311279296875,-0.0730133056640625
22.24,0.01489612553268671,0.018432537093758583,-0.007189735770225525,-0.196502685546875,0.973358154296875,-0.072845458984375
22.26,0.012435364536941051,0.009248092770576477,0.002941727638244629,-0.193939208984375,0.96966552734375,-0.072723388671875
22.28,0.0059686764143407345,-0.008044078014791012,0.0032474587205797434,-0.1978912353515625,0.974090576171875,-0.067169189453125
22.3,0.00945182517170906,0.0028852687682956457,-0.0009568737586960196,-0.200347900390625,0.9720001220703125,-0.0667724609375
22.32,-0.005887183826416731,-0.02274046652019024,-0.0030312100425362587,-0.2032928466796875,0.975982666015625,-0.0682220458984375
22.34,-0.019962789490818977,-0.03940492868423462,-0.00914689339697361,-0.200042724609375,0.9700775146484375,-0.0653076171875
22.36,-0.01525858137756586,-0.013346165418624878,-0.005534048657864332,-0.197235107421875,0.9690093994140625,-0.0715179443359375
22.38,-0.0041071269661188126,0.0115559883415699,-0.00430180411785841,-0.1887054443359375,0.9769439697265625,-0.0793304443359375
22.4,0.007586280815303326,0.015595471486449242,0.008645952679216862,-0.185821533203125,0.9760589599609375,-0.0841522216796875
22.42,0.020919131115078926,0.005705290008336306,0.01637204922735691,-0.183135986328125,0.9719085693359375,-0.0809783935546875
22.44,0.03147243708372116,-0.003952397499233484,0.017059942707419395,-0.19097900390625,0.9754638671875,-0.0787200927734375
22.46,0.024865401908755302,-0.01270034909248352,0.0049436260014772415,-0.20001220703125,0.9756011962890625,-0.073638916015625
22.48,0.009342901408672333,-0.008023039437830448,-0.005862150341272354,-0.2043304443359375,0.97064208984375,-0.0673828125
22.5,-0.010174340568482876,0.013715812005102634,-0.008110923692584038,-0.198883056640625,0.9708251953125,-0.0650177001953125
22.52,-0.01733398251235485,0.015428490936756134,-0.00515801040455699,-0.1956634521484375,0.9769134521484375,-0.068572998046875
22.54,-0.013273194432258606,0.0036277580074965954,-0.009462743997573853,-0.189178466796875,0.974273681640625,-0.073211669921875
22.56,-0.0024802018888294697,-0.0005731122801080346,0.004326305352151394,-0.1878204345703125,0.973175048828125,-0.077484130859375
22.58,0.01122442539781332,0.005567871034145355,0.010401507839560509,-0.1850128173828125,0.9796295166015625,-0.08282470703125
22.6,0.012526444159448147,-0.0032679650466889143,0.012133361771702766,-0.184906005859375,0.9750823974609375,-0.080657958984375
22.62,0.01213016640394926,0.008328237570822239,0.01769697107374668,-0.1887969970703125,0.971527099609375,-0.0766143798828125
22.64,0.010391654446721077,0.004868258256465197,0.0070613715797662735,-0.1941070556640625,0.97723388671875,-0.07574462890625
22.66,0.0023180153220891953,0.00965555664151907,-0.001814411603845656,-0.1999664306640625,0.973175048828125,-0.0726776123046875
22.68,0.006405168678611517,0.03172703832387924,-0.002689260058104992,-0.1956024169921875,0.969573974609375,-0.07354736328125
22.7,-0.0022533005103468895,0.03632951155304909,-0.0024578312877565622,-0.1952972412109375,0.9756622314453125,-0.076019287109375
22.72,0.0029459886718541384,0.038184404373168945,0.0007968177669681609,-0.189971923828125,0.9756317138671875,-0.0754547119140625
22.74,0.007928497157990932,0.032763008028268814,0.006333529483526945,-0.191650390625,0.9736328125,-0.0766143798828125
22.76,0.005781456362456083,0.015237542800605297,0.0062672169879078865,-0.192474365234375,0.974609375,-0.0732421875
22.78,0.009520268067717552,0.01449771597981453,0.006926349364221096,-0.19549560546875,0.97357177734375,-0.0725555419921875
22.8,0.004434163216501474,0.00025353292585350573,0.003750795964151621,-0.1979217529296875,0.9730072021484375,-0.0719757080078125
22.82,-0.000606934423558414,-0.00965875294059515,0.0011837751371785998,-0.198699951171875,0.97222900390625,-0.0705108642578125
22.84,-0.0051505533047020435,-0.0035947347059845924,-0.002005626680329442,-0.1953582763671875,0.9717254638671875,-0.0726776123046875
22.86,-0.0004346278728917241,0.01618589460849762,-0.003061836352571845,-0.19451904296875,0.9741973876953125,-0.07513427734375
22.88,-0.002213353058323264,0.020984111353754997,0.0002609897928778082,-0.192047119140625,0.97601318359375,-0.0779876708984375
22.9,0.00047404266661033034,0.021083980798721313,0.007430219557136297,-0.1902313232421875,0.9740447998046875,-0.07818603515625
22.92,0.00956660695374012,0.01920511946082115,0.015291870571672916,-0.1871337890625,0.975128173828125,-0.0794525146484375
22.94,0.015529158525168896,0.0059961071237921715,0.005798234138637781,-0.19476318359375,0.9745025634765625,-0.0768890380859375
22.96,0.006583068054169416,-0.00039281626231968403,0.003634682158008218,-0.2003936767578125,0.9727630615234375,-0.0722808837890625
22.98,-0.006621683482080698,-0.004393416922539473,-0.007396929897367954,-0.2022247314453125,0.9721527099609375,-0.0682220458984375
23,-0.019286612048745155,0.014002634212374687,-0.014404505491256714,-0.2030181884765625,0.9708404541015625,-0.06854248046875
23.02,-0.017365140840411186,0.03399178758263588,-0.017490576952695847,-0.1985626220703125,0.9721221923828125,-0.072479248046875
23.04,-0.016286294907331467,0.03237365186214447,-0.013652428984642029,-0.194091796875,0.9746246337890625,-0.073760986328125
23.06,-0.010583934374153614,0.009442503564059734,-0.0009004147723317146,-0.1888275146484375,0.972900390625,-0.0777130126953125
23.08,-0.00021971078240312636,-0.01679708994925022,0.012251606211066246,-0.185546875,0.9741973876953125,-0.0794219970703125
23.1,0.012865997850894928,-0.028778651729226112,0.010912834666669369,-0.1904144287109375,0.974395751953125,-0.0789337158203125
23.12,0.011798868887126446,-0.01438000425696373,0.00010998855577781796,-0.1935272216796875,0.9715118408203125,-0.079498291015625
23.14,0.00706856232136488,0.011983159929513931,-0.00005246427463134751,-0.195281982421875,0.9736175537109375,-0.0786285400390625
23.16,-0.004339620936661959,0.010252904146909714,0.008919991552829742,-0.1911468505859375,0.9738311767578125,-0.0782012939453125
23.18,0.003997404593974352,-0.0016591493040323257,0.003102849004790187,-0.191741943359375,0.972869873046875,-0.076568603515625
23.2,0.016411731019616127,-0.007502391003072262,0.004608866758644581,-0.194854736328125,0.9745941162109375,-0.0762786865234375
23.22,0.0151986600831151,-0.014532336965203285,0.0019283948931843042,-0.194976806640625,0.9744415283203125,-0.077606201171875
23.24,0.0025624935515224934,-0.015106781385838985,0.0018421085551381111,-0.1922454833984375,0.973297119140625,-0.0744781494140625
23.26,-0.004595550708472729,0.005031243897974491,0.001213602488860488,-0.186614990234375,0.971466064453125,-0.075042724609375
23.28,0.0018929748330265284,0.025431590154767036,0.007153783459216356,-0.185577392578125,0.9744873046875,-0.079986572265625
23.3,0.011200456880033016,0.01119326613843441,0.01834678277373314,-0.185821533203125,0.9803314208984375,-0.0811920166015625
23.32,0.024701884016394615,-0.005593437235802412,0.009410546161234379,-0.189361572265625,0.973236083984375,-0.0789031982421875
23.34,0.02014921046793461,-0.01859232597053051,0.008864598348736763,-0.2000579833984375,0.9728546142578125,-0.076568603515625
23.36,0.006387858185917139,-0.01296373549848795,-0.005902363918721676,-0.200042724609375,0.9715423583984375,-0.068817138671875
23.38,-0.013968812301754951,-0.0034908715169876814,-0.011519236490130424,-0.20233154296875,0.9719696044921875,-0.070404052734375
23.4,-0.01546604186296463,0.013835920952260494,-0.006792126223444939,-0.1944122314453125,0.97357177734375,-0.0725860595703125
23.42,-0.004787298385053873,0.015731558203697205,-0.0005968143814243376,-0.1900482177734375,0.976654052734375,-0.07940673828125
23.44,0.0015795208746567369,-0.005215800832957029,0.0031933963764458895,-0.18756103515625,0.974334716796875,-0.080657958984375
23.46,0.007865645922720432,-0.013993846252560616,0.008344482630491257,-0.1871795654296875,0.974456787109375,-0.0821380615234375
23.48,0.003008306724950671,-0.01739603467285633,0.00942039955407381,-0.188995361328125,0.9742431640625,-0.078887939453125
23.5,0.002055427758023143,0.0015073491958901286,0.0032059133518487215,-0.1937255859375,0.9721221923828125,-0.079193115234375
23.52,-0.0030692932195961475,-0.0038253646343946457,0.011385013349354267,-0.195526123046875,0.97247314453125,-0.0805816650390625
23.54,0.00440992834046483,-0.008146343752741814,0.009853961877524853,-0.193756103515625,0.9721832275390625,-0.0805816650390625
23.56,0.01829352043569088,0.0015939018921926618,0.0036099147982895374,-0.1967620849609375,0.9739837646484375,-0.082550048828125
23.58,0.019160112366080284,0.0062608253210783005,-0.001455151243135333,-0.1942901611328125,0.9757232666015625,-0.08197021484375
23.6,0.00688933115452528,0.00649651512503624,-0.0005499427788890898,-0.1942596435546875,0.974700927734375,-0.077423095703125
23.62,-0.003326021833345294,0.0110443951562047,-0.0014455638593062758,-0.19146728515625,0.973388671875,-0.074798583984375
23.64,-0.001184574095532298,0.02040487341582775,0.00035686357296071947,-0.1913604736328125,0.9744720458984375,-0.073883056640625
23.66,0.0022801985032856464,-0.0006301039247773588,0.004355333745479584,-0.19000244140625,0.9763031005859375,-0.0758209228515625
23.68,0.0028370653744786978,-0.021080518141388893,0.010151970200240612,-0.1904449462890625,0.9732513427734375,-0.0739898681640625
23.7,0.009154083207249641,-0.019542541354894638,0.012044145725667477,-0.1920166015625,0.9726715087890625,-0.0732879638671875
23.72,0.0006905576447024941,-0.02075081877410412,0.003088467987254262,-0.19781494140625,0.974700927734375,-0.0725555419921875
23.74,-0.017845842987298965,-0.02076200395822525,-0.006475742440670729,-0.199554443359375,0.9734039306640625,-0.070037841796875
23.76,-0.028154406696558,-0.02394954115152359,-0.006822752300649881,-0.1957855224609375,0.97161865234375,-0.0732421875
23.78,-0.024625185877084732,-0.00452790642157197,-0.012232697568833828,-0.1905670166015625,0.9745025634765625,-0.0774993896484375
23.8,-0.0073354109190404415,0.02171887829899788,-0.006277336739003658,-0.183929443359375,0.975189208984375,-0.0870819091796875
23.82,0.004996090196073055,0.03184102103114128,0.006996923126280308,-0.1765594482421875,0.97607421875,-0.089324951171875
23.84,0.022997727617621422,0.019601929932832718,0.02008635923266411,-0.1779327392578125,0.9769134521484375,-0.089599609375
23.86,0.033239446580410004,0.0007936219917610288,0.020445354282855988,-0.185089111328125,0.9761199951171875,-0.0839080810546875
23.88,0.028417792171239853,-0.005596633069217205,0.012521384283900261,-0.1921539306640625,0.9742889404296875,-0.076629638671875
23.9,0.008552209474146366,-0.0007158577209338546,-0.0036858150269836187,-0.2013092041015625,0.9723663330078125,-0.0709686279296875
23.92,-0.01587936468422413,0.010364490561187267,-0.01506816502660513,-0.204833984375,0.9725799560546875,-0.0655975341796875
23.94,-0.030312897637486458,0.030786940827965736,-0.019042933359742165,-0.20037841796875,0.9718017578125,-0.0661163330078125
23.96,-0.033496707677841187,0.03184501454234123,-0.01218609232455492,-0.1921539306640625,0.9760894775390625,-0.0730133056640625
23.98,-0.024171382188796997,0.010885937139391899,-0.004685565363615751,-0.18402099609375,0.97552490234375,-0.0771942138671875
24,-0.003032541600987315,-0.010085124522447586,0.01082814671099186,-0.1813507080078125,0.974639892578125,-0.08258056640625
24.02,0.016205867752432823,-0.017192035913467407,0.011876100674271584,-0.18182373046875,0.9764862060546875,-0.085357666015625
24.04,0.016921458765864372,-0.012005263939499855,0.01182337012141943,-0.190216064453125,0.9749298095703125,-0.081085205078125
24.06,0.005691175349056721,0.010363425128161907,0.00021518341964110732,-0.195159912109375,0.9739227294921875,-0.0763092041015625
24.08,-0.005662146955728531,0.027903536334633827,-0.008924518711864948,-0.198089599609375,0.9720458984375,-0.0737762451171875
24.1,-0.012643889524042606,0.01434991043061018,-0.012524314224720001,-0.201690673828125,0.972259521484375,-0.0715179443359375
24.12,-0.012340023182332516,0.00854714959859848,-0.011125088669359684,-0.20025634765625,0.9743499755859375,-0.07098388671875
24.14,-0.0009763148264028132,0.004479703027755022,-0.01462608017027378,-0.1959381103515625,0.9720001220703125,-0.0733795166015625
24.16,-0.009162339381873608,0.001487109111621976,-0.010453440248966217,-0.192108154296875,0.9751739501953125,-0.0750579833984375
24.18,-0.006189718842506409,0.022187061607837677,0.0038874163292348385,-0.18902587890625,0.977752685546875,-0.0735626220703125
24.2,-0.010394850745797157,0.006851514335721731,-0.002916427794843912,-0.1910247802734375,0.972137451171875,-0.072540283203125
24.22,-0.01446948666125536,-0.018516160547733307,0.0020546286832541227,-0.1971588134765625,0.9736328125,-0.069000244140625
24.24,-0.010485397651791573,-0.027843348681926727,0.003067162586376071,-0.197967529296875,0.971771240234375,-0.0703887939453125
24.26,-0.011955995112657547,-0.030403180047869682,-0.0016109461430460215,-0.1988372802734375,0.973602294921875,-0.0716705322265625
24.28,-0.008131695911288261,-0.014668690972030163,-0.0054634748958051205,-0.200347900390625,0.9728240966796875,-0.0731353759765625
24.3,-0.011601528152823448,-0.0070461914874613285,0.00152306177187711,-0.1940155029296875,0.972503662109375,-0.0740814208984375
24.32,-0.006759102921932936,-0.02137000299990177,0.004810201469808817,-0.190521240234375,0.9727020263671875,-0.077239990234375
24.34,0.003997670952230692,-0.01649295724928379,0.0006740460521541536,-0.1920928955078125,0.972900390625,-0.0781402587890625
24.36,0.016023973003029823,-0.0037350833881646395,0.006866694428026676,-0.1923675537109375,0.9772491455078125,-0.0802459716796875
24.38,0.008807073347270489,-0.006003297865390778,0.0010311759542673826,-0.1891937255859375,0.9744415283203125,-0.0782928466796875
24.4,0.006000900641083717,-0.012437228113412857,0.004396612755954266,-0.1927490234375,0.9709014892578125,-0.0736236572265625
24.42,0.010192982852458954,-0.005254416726529598,0.004538292996585369,-0.1907806396484375,0.97222900390625,-0.0737457275390625
24.44,0.014417288824915886,0.004840028937906027,0.00821052584797144,-0.19207763671875,0.9780120849609375,-0.076171875
24.46,0.0021025657188147306,-0.011873969808220863,0.006493852008134127,-0.19390869140625,0.9745330810546875,-0.07196044921875
24.48,-0.0046605318784713745,-0.011363974772393703,0.003945473115891218,-0.1949920654296875,0.970489501953125,-0.068939208984375
24.5,-0.008764463476836681,-0.014007960446178913,0.0030802120454609394,-0.192718505859375,0.9715576171875,-0.0712127685546875
24.52,-0.001347293145954609,0.0024490428622812033,0.004132959526032209,-0.1929931640625,0.9776153564453125,-0.0751495361328125
24.54,-0.000434361572843045,-0.0030929953791201115,0.011799135245382786,-0.188232421875,0.9757843017578125,-0.07867431640625
24.56,0.000979244359768927,-0.0017963021527975798,0.0070579093880951405,-0.1876220703125,0.971923828125,-0.077606201171875
24.58,0.013626595959067345,0.01612037979066372,0.0025776736438274384,-0.190765380859375,0.9729156494140625,-0.078338623046875
24.6,0.005967345088720322,0.015075888484716415,0.005942311137914658,-0.1914825439453125,0.975555419921875,-0.077606201171875
24.62,0.0037324202712625265,0.0038432078436017036,0.008212922140955925,-0.1896514892578125,0.9734954833984375,-0.0753021240234375
24.64,0.005057076457887888,0.0025390577502548695,0.014763499610126019,-0.1886138916015625,0.9734954833984375,-0.0753631591796875
24.66,0.010357299819588661,-0.0001704423048067838,0.011752796359360218,-0.190704345703125,0.9745635986328125,-0.076751708984375
24.68,0.013279053382575512,0.014683072455227375,0.010719489306211472,-0.1910552978515625,0.9727935791015625,-0.07855224609375
24.7,0.004855475388467312,0.017649566754698753,0.007396929897367954,-0.1877288818359375,0.9731903076171875,-0.0768890380859375
24.72,0.0057047572918236256,0.024950889870524406,0.006043245084583759,-0.191314697265625,0.9788818359375,-0.074951171875
24.74,0.008841427974402905,0.01998009905219078,0.00939083844423294,-0.1894378662109375,0.9719390869140625,-0.0778656005859375
24.76,0.008288023993372917,0.011919775977730751,0.007930893450975418,-0.189971923828125,0.9738616943359375,-0.0763092041015625
24.78,0.013038037344813347,0.026099510490894318,0.001091629732400179,-0.1904296875,0.9749908447265625,-0.07855224609375
24.8,0.007351922336965799,0.04053517431020737,0.005746036302298307,-0.1861572265625,0.97149658203125,-0.0797271728515625
24.82,0.012023373506963253,0.041183654218912125,0.010297112166881561,-0.183380126953125,0.976104736328125,-0.0776824951171875
24.84,0.013226056471467018,0.02599191851913929,0.010528807528316975,-0.186676025390625,0.9764404296875,-0.07757568359375
24.86,0.02082671783864498,0.03536970913410187,0.015503325499594212,-0.1868133544921875,0.97491455078125,-0.077972412109375
24.88,0.008518919348716736,0.03899826481938362,0.006183593533933163,-0.18902587890625,0.9784393310546875,-0.0769500732421875
24.9,-0.003506850451231003,0.04719174653291702,0.014082795940339565,-0.1902618408203125,0.9726104736328125,-0.07025146484375
24.92,-0.01167343370616436,0.037034451961517334,0.015506521798670292,-0.1878662109375,0.9716796875,-0.0722808837890625
24.94,0.00008841694943839684,0.02093670703470707,0.008500809781253338,-0.19366455078125,0.9752960205078125,-0.0750579833984375
24.96,0.012783173471689224,0.012563196010887623,0.006596649996936321,-0.19482421875,0.9745025634765625,-0.076202392578125
24.98,0.0073468624614179134,0.007487743627279997,-0.0036479979753494263,-0.1973114013671875,0.9724884033203125,-0.0757904052734375
25,-0.0010639328975230455,0.015529957599937916,-0.004628307651728392,-0.1946868896484375,0.9708404541015625,-0.0751953125
25.02,-0.0046384274028241634,0.0346037819981575,-0.008082427084445953,-0.1902008056640625,0.97314453125,-0.0773773193359375
25.04,0.0019712718203663826,0.04163852334022522,-0.0022357236593961716,-0.18878173828125,0.9759674072265625,-0.0807342529296875
25.06,0.014347514137625694,0.029078256338834763,0.0062397862784564495,-0.183624267578125,0.9745025634765625,-0.083587646484375
25.08,0.02539057843387127,0.013580789789557457,0.010456102900207043,-0.183258056640625,0.976165771484375,-0.0821533203125
25.1,0.022408636286854744,0.001526257605291903,0.01363378670066595,-0.1854248046875,0.975799560546875,-0.0831146240234375
25.12,0.01613476127386093,-0.0002913498319685459,0.014104633592069149,-0.1849517822265625,0.972747802734375,-0.078582763671875
25.14,0.011227887123823166,0.01005210168659687,0.011442271992564201,-0.1849517822265625,0.9720306396484375,-0.078277587890625
25.16,0.0007414240390062332,0.02780100516974926,0.014899853616952896,-0.1850738525390625,0.976287841796875,-0.07958984375
25.18,-0.003439472522586584,0.02057238668203354,0.01034611463546753,-0.1864166259765625,0.9742889404296875,-0.081817626953125
25.2,0.003736681304872036,0.01738910935819149,0.010665959678590298,-0.1866302490234375,0.973541259765625,-0.081329345703125
25.22,0.012193016707897186,0.012766927480697632,0.010300574824213982,-0.1844024658203125,0.97344970703125,-0.0862579345703125
25.24,0.013729660771787167,0.010784204117953777,0.010810037143528461,-0.185455322265625,0.9744110107421875,-0.086761474609375
25.26,0.005396896041929722,-0.00458809407427907,0.010822021402418613,-0.18414306640625,0.974517822265625,-0.085968017578125
25.28,0.010366354137659073,0.006124737672507763,0.0030634342692792416,-0.1850128173828125,0.97576904296875,-0.08380126953125
25.3,0.014705176465213299,0.01577363722026348,-0.0026932547334581614,-0.1850738525390625,0.9768524169921875,-0.086334228515625
25.32,-0.008711200207471848,-0.0198658499866724,-0.012088621035218239,-0.185760498046875,0.979522705078125,-0.0860137939453125
25.34,-0.03111317753791809,-0.04138818755745888,-0.018759839236736298,-0.1863250732421875,0.97906494140625,-0.082305908203125
25.36,-0.024657409638166428,-0.0463150329887867,-0.037588655948638916,-0.1821746826171875,0.977386474609375,-0.086334228515625
25.38,-0.03160666301846504,-0.061464957892894745,-0.04542367532849312,-0.1807098388671875,0.9804229736328125,-0.093109130859375
25.4,-0.05367761105298996,-0.0720590129494667,-0.039500538259744644,-0.1720123291015625,0.9754180908203125,-0.092437744140625
25.42,-0.06805948168039322,-0.0433751717209816,-0.03063567355275154,-0.160369873046875,0.97357177734375,-0.0967864990234375
25.44,-0.06965897232294083,0.015025555156171322,-0.008686166256666183,-0.1494140625,0.981689453125,-0.1061553955078125
25.46,-0.07091785222291946,0.04378795996308327,0.008719189092516899,-0.1407623291015625,0.976348876953125,-0.1143951416015625
25.48,-0.0662277564406395,0.052147891372442245,0.009737848304212093,-0.141571044921875,0.981658935546875,-0.11651611328125
25.5,-0.05956239625811577,0.0541686974465847,-0.0008197209681384265,-0.14581298828125,0.9825286865234375,-0.1197509765625
25.52,-0.06343889236450195,0.062482018023729324,-0.013216735795140266,-0.1486968994140625,0.9925384521484375,-0.12060546875
25.54,-0.05453221872448921,0.12032321840524673,-0.038110632449388504,-0.1475067138671875,0.9864349365234375,-0.119415283203125
25.56,-0.07050851732492447,0.2106882631778717,-0.06124205142259598,-0.142120361328125,0.9674072265625,-0.1224212646484375
25.58,-0.11256622523069382,0.32511869072914124,-0.08600039780139923,-0.128875732421875,0.963287353515625,-0.1237335205078125
25.6,-0.15618374943733215,0.4433276355266571,-0.10656612366437912,-0.1218109130859375,0.9762725830078125,-0.1269378662109375
25.62,-0.17139625549316406,0.5695518851280212,-0.11076539754867554,-0.1155548095703125,0.98370361328125,-0.1336669921875
25.64,-0.15304067730903625,0.6678345203399658,-0.09676702320575714,-0.1030120849609375,0.9781494140625,-0.1499176025390625
25.66,-0.1194896474480629,0.7331570386886597,-0.09506499767303467,-0.0916900634765625,0.9712677001953125,-0.1588897705078125
25.68,-0.07859281450510025,0.7868290543556213,-0.09805706143379211,-0.0842742919921875,0.9745635986328125,-0.1698760986328125
25.7,-0.010718956589698792,0.8528836965560913,-0.0889626294374466,-0.07611083984375,0.9785003662109375,-0.177734375
25.72,0.0765451043844223,0.9209357500076294,-0.0822320207953453,-0.064453125,0.9835662841796875,-0.193756103515625
25.74,0.1593734174966812,0.9653916358947754,-0.055082958191633224,-0.05853271484375,0.98529052734375,-0.2042999267578125
25.76,0.2251918464899063,0.9644842743873596,-0.011407916434109211,-0.0531158447265625,0.98040771484375,-0.2072296142578125
25.78,0.27595463395118713,0.9416410326957703,0.0534464456140995,-0.0502166748046875,0.9672698974609375,-0.2079620361328125
25.8,0.3467821776866913,0.9150344729423523,0.14596305787563324,-0.0499420166015625,0.955078125,-0.20196533203125
25.82,0.45226946473121643,0.9363839626312256,0.24618926644325256,-0.0615692138671875,0.9444580078125,-0.1971588134765625
25.84,0.5351480841636658,1.0305399894714355,0.31025055050849915,-0.08660888671875,0.93463134765625,-0.1812591552734375
25.86,0.4958624839782715,1.0316526889801025,0.33336305618286133,-0.123504638671875,0.93310546875,-0.156890869140625
25.88,0.3475172221660614,1.079827904701233,0.3013033866882324,-0.173004150390625,0.943603515625,-0.110504150390625
25.9,-0.06244686618447304,1.4725924730300903,0.12267585098743439,-0.25982666015625,0.971771240234375,-0.05963134765625
25.92,-0.5876094698905945,1.5494619607925415,-0.09646262228488922,-0.41717529296875,0.970977783203125,0.0723876953125
25.94,-0.5283243060112,0.8659502863883972,-0.11995117366313934,-0.4460601806640625,0.9542236328125,0.01531982421875
25.96,-0.13167494535446167,0.6549466848373413,-0.1319364607334137,-0.4169158935546875,0.97271728515625,-0.140869140625
25.98,0.06529325246810913,0.41799432039260864,-0.1834997832775116,-0.4592132568359375,0.9961395263671875,-0.149200439453125
26,-0.03267831727862358,-0.14786669611930847,-0.29687589406967163,-0.460693359375,0.9781646728515625,-0.062225341796875
26.02,-0.05032042786478996,-0.5349515676498413,-0.2619607746601105,-0.3484649658203125,0.968109130859375,-0.022369384765625
26.04,0.05865638703107834,-0.4874628782272339,-0.1654006838798523,-0.184295654296875,0.9712371826171875,-0.0819091796875
26.06,0.15865489840507507,-0.21687957644462585,-0.06297044456005096,-0.0918121337890625,1.003082275390625,-0.1306915283203125
26.08,0.14179494976997375,-0.1414434164762497,-0.0021736719645559788,-0.0796356201171875,1.0032806396484375,-0.1599884033203125
26.1,-0.002296710154041648,-0.07696322351694107,-0.04150882735848427,-0.17999267578125,0.9615020751953125,-0.175384521484375
26.12,-0.14793673157691956,0.18803568184375763,-0.2083958089351654,-0.2837371826171875,0.9387664794921875,-0.163482666015625
26.14,-0.15624499320983887,0.4231179654598236,-0.30544325709342957,-0.3270111083984375,0.9415283203125,-0.154144287109375
26.16,-0.10424544662237167,0.43690675497055054,-0.1831839382648468,-0.2566986083984375,0.9650421142578125,-0.165191650390625
26.18,-0.08644301444292068,0.2161959409713745,-0.09177492558956146,-0.2179718017578125,0.9945220947265625,-0.1379547119140625
26.2,-0.05006902664899826,-0.0688437819480896,-0.13338148593902588,-0.2366180419921875,1.0181732177734375,-0.101043701171875
26.22,0.03550659492611885,-0.2229209691286087,-0.11032677441835403,-0.219696044921875,0.969940185546875,-0.109375
26.24,0.08311033248901367,-0.11710212379693985,-0.026448652148246765,-0.155517578125,0.9196624755859375,-0.1585235595703125
26.26,0.0427064523100853,-0.031038876622915268,0.09028249233961105,-0.1558685302734375,0.9233856201171875,-0.1646270751953125
26.28,-0.02351997420191765,-0.10163740813732147,-0.03262558579444885,-0.2203521728515625,0.9716949462890625,-0.1653289794921875
26.3,-0.03117176704108715,0.06349881738424301,-0.14263251423835754,-0.2937469482421875,0.9887542724609375,-0.1405181884765625
26.32,0.047331031411886215,0.31547752022743225,-0.10607743263244629,-0.1555938720703125,0.94036865234375,-0.1483306884765625
26.34,0.1345578134059906,0.38358867168426514,0.007906658574938774,-0.0718841552734375,0.93060302734375,-0.1573028564453125
26.36,0.09181194752454758,0.3223564624786377,0.07526759058237076,-0.1157073974609375,0.95703125,-0.1815643310546875
26.38,0.022723954170942307,0.24665984511375427,0.02509097196161747,-0.2340545654296875,0.9507293701171875,-0.1442108154296875
26.4,0.09121593087911606,0.3021380305290222,-0.004280765075236559,-0.2961578369140625,0.9222412109375,-0.1530609130859375
26.42,0.048040229827165604,0.4288482964038849,0.08663102984428406,-0.235626220703125,0.928558349609375,-0.1730499267578125
26.44,-0.04574591666460037,0.31705012917518616,0.14765124022960663,-0.1358795166015625,1.007904052734375,-0.1077880859375
26.46,-0.07872703671455383,-0.030169354751706123,0.14311908185482025,-0.11102294921875,1.05657958984375,-0.0976104736328125
26.48,-0.025738919153809547,-0.13287070393562317,0.03316514194011688,-0.17169189453125,1.01324462890625,-0.0867767333984375
26.5,0.1435726135969162,0.13485369086265564,-0.043233223259449005,-0.2794189453125,0.9218902587890625,-0.1381072998046875
26.52,0.07761729508638382,0.4729901850223541,0.05282007157802582,-0.209259033203125,0.9227752685546875,-0.2056121826171875
26.54,-0.10960878431797028,0.3986499011516571,0.06374941766262054,-0.1195831298828125,0.987060546875,-0.15765380859375
26.56,-0.14472416043281555,0.21558155119419098,-0.0666450709104538,-0.177276611328125,0.9910125732421875,-0.1304779052734375
26.58,-0.0506269596517086,0.208406463265419,-0.069590263068676,-0.282257080078125,0.9988555908203125,-0.130767822265625
26.6,0.0911426916718483,0.06300613284111023,0.027458522468805313,-0.2958526611328125,0.98858642578125,-0.1375885009765625
26.62,0.15084649622440338,-0.13471147418022156,0.07119348645210266,-0.2281494140625,0.97027587890625,-0.15484619140625
26.64,0.1377890259027481,-0.21234261989593506,0.0008604673203080893,-0.14044189453125,0.9533538818359375,-0.1678009033203125
26.66,0.03777321055531502,-0.14312893152236938,-0.10228881984949112,-0.131439208984375,0.9669952392578125,-0.1730499267578125
26.68,-0.014377341605722904,-0.08324562013149261,-0.06809942424297333,-0.1808013916015625,0.9791107177734375,-0.1527862548828125
26.7,0.0005360943032428622,-0.057746388018131256,0.02694612927734852,-0.2117156982421875,0.9819793701171875,-0.1607513427734375
26.72,0.04675152525305748,-0.08564352989196777,0.030488133430480957,-0.1648101806640625,0.9871826171875,-0.16387939453125
26.74,0.06879743933677673,-0.0604175366461277,-0.0513199120759964,-0.1121063232421875,0.9599761962890625,-0.174072265625
26.76,0.06773883104324341,-0.01684476062655449,-0.07812222838401794,-0.103973388671875,0.96722412109375,-0.1638031005859375
26.78,0.037213414907455444,0.06805495172739029,-0.07858189195394516,-0.1326751708984375,0.977264404296875,-0.1773529052734375
26.8,0.04062039777636528,0.06144418567419052,-0.04892812669277191,-0.1967620849609375,0.97723388671875,-0.1714935302734375
26.82,0.03819319233298302,-0.015244466252624989,-0.021580126136541367,-0.2012176513671875,0.9692230224609375,-0.1754150390625
26.84,0.05537138134241104,-0.018326010555028915,-0.016692161560058594,-0.18994140625,0.972747802734375,-0.1617889404296875
26.86,0.036617133766412735,-0.008473912253975868,-0.033125463873147964,-0.1787872314453125,0.958282470703125,-0.1774749755859375
26.88,0.013915282674133778,-0.01702718622982502,-0.05156812071800232,-0.1824951171875,0.957000732421875,-0.1794281005859375
26.9,0.02533997781574726,0.03936604782938957,-0.07634004205465317,-0.1917266845703125,0.978271484375,-0.1981353759765625
26.92,0.005826463922858238,0.05511624738574028,-0.06268016248941422,-0.2033233642578125,0.981964111328125,-0.190673828125
26.94,0.005786782596260309,0.0015358449891209602,-0.014249775558710098,-0.191619873046875,0.9639892578125,-0.160186767578125
26.96,0.010997789911925793,-0.017006147652864456,-0.0073266224935650826,-0.1693572998046875,0.958831787109375,-0.162628173828125
26.98,0.024652348831295967,-0.01950046420097351,-0.026158899068832397,-0.180023193359375,0.960357666015625,-0.1699066162109375
27,0.014417821541428566,-0.013235644437372684,-0.039987362921237946,-0.18792724609375,0.9444427490234375,-0.19921875
27.02,-0.0023044333793222904,0.008580438792705536,-0.04448144882917404,-0.171966552734375,0.9501800537109375,-0.20513916015625
27.04,0.007268299348652363,0.017075655981898308,-0.021144699305295944,-0.173675537109375,0.957489013671875,-0.1904144287109375
27.06,0.013310212641954422,-0.04255891218781471,0.003087136195972562,-0.1846923828125,0.951324462890625,-0.1694793701171875
27.08,0.007378287613391876,-0.03699769824743271,0.014958709478378296,-0.1907806396484375,0.9677886962890625,-0.1702728271484375
27.1,0.00566880451515317,-0.026667030528187752,0.014860172756016254,-0.1907501220703125,0.96405029296875,-0.1745452880859375
27.12,0.004254666157066822,-0.013491307385265827,0.005890646018087864,-0.197998046875,0.9535064697265625,-0.1861724853515625
27.14,0.006865895353257656,-0.007890679873526096,-0.010608968324959278,-0.2083892822265625,0.9557037353515625,-0.189697265625
27.16,0.01846662536263466,-0.013380520045757294,-0.026080070063471794,-0.2123260498046875,0.9630584716796875,-0.1806488037109375
27.18,0.014839133247733116,-0.02395566552877426,-0.01321034412831068,-0.2217864990234375,0.9638671875,-0.179290771484375
27.2,0.003689809702336788,-0.024053670465946198,-0.0035294874105602503,-0.2102813720703125,0.964019775390625,-0.1761322021484375
27.22,-0.01091842819005251,0.007173224352300167,-0.002192580606788397,-0.191802978515625,0.9663848876953125,-0.1843414306640625
27.24,-0.01332938764244318,0.04512300342321396,-0.014315023086965084,-0.17333984375,0.9633636474609375,-0.1926422119140625
27.26,0.01116370502859354,0.01594141498208046,-0.031980037689208984,-0.1787567138671875,0.9615631103515625,-0.1964569091796875
27.28,0.03527490049600601,-0.0008074704091995955,-0.0368320494890213,-0.1941070556640625,0.95819091796875,-0.187408447265625
27.3,0.03158402442932129,-0.005375057924538851,-0.02286536805331707,-0.2125244140625,0.9603118896484375,-0.1894989013671875
27.32,0.007752994541078806,-0.009340238757431507,-0.013185043819248676,-0.2039794921875,0.9559173583984375,-0.1914520263671875
27.34,0.0021283982787281275,0.03063700534403324,-0.02153165638446808,-0.1873016357421875,0.9576568603515625,-0.1952362060546875
27.36,0.014709703624248505,0.03200507164001465,-0.025553297251462936,-0.1851654052734375,0.9589080810546875,-0.189178466796875
27.38,0.029467610642313957,0.015212508849799633,-0.01617950201034546,-0.193359375,0.96466064453125,-0.1836700439453125
27.4,0.02466513216495514,0.008723716251552105,-0.005885852500796318,-0.1949615478515625,0.9632415771484375,-0.178192138671875
27.42,0.013666277751326561,-0.0027779433876276016,0.005013933405280113,-0.1994171142578125,0.9634857177734375,-0.180511474609375
27.44,-0.00070493872044608,-0.02696317434310913,-0.00014620754518546164,-0.200347900390625,0.9574737548828125,-0.178955078125
27.46,0.01685754396021366,-0.021700501441955566,0.008791361004114151,-0.196441650390625,0.9624786376953125,-0.17791748046875
27.48,0.023251259699463844,0.01329796202480793,0.0046695866622030735,-0.191864013671875,0.9603271484375,-0.1821746826171875
27.5,0.017351560294628143,0.017359549179673195,0.010027334094047546,-0.1943359375,0.954254150390625,-0.1817626953125
27.52,0.005130579695105553,0.015591209754347801,0.013836986385285854,-0.1859588623046875,0.96044921875,-0.1842041015625
27.54,-0.001406947965733707,0.01997637189924717,0.012927250005304813,-0.18084716796875,0.9542999267578125,-0.1864166259765625
27.56,0.0011076086666435003,0.0338628925383091,0.015602395869791508,-0.1890716552734375,0.95751953125,-0.1842041015625
27.58,0.012080897577106953,0.025440111756324768,0.027939489111304283,-0.19140625,0.9592132568359375,-0.1778564453125
27.6,0.01510198786854744,0.01619787886738777,0.03304263949394226,-0.186309814453125,0.959228515625,-0.1801605224609375
27.62,0.011956261470913887,0.0068235513754189014,0.02208639308810234,-0.1832427978515625,0.9593048095703125,-0.191680908203125
27.64,0.012805011123418808,-0.0004916195175610483,0.01435390580445528,-0.1949005126953125,0.95941162109375,-0.197235107421875
27.66,0.006822219584137201,-0.015975771471858025,0.012605540454387665,-0.1990966796875,0.9547119140625,-0.1915130615234375
27.68,-0.015147527679800987,0.00974663719534874,0.014702779240906239,-0.1958160400390625,0.9653472900390625,-0.1953582763671875
27.7,-0.020853349938988686,0.01489452738314867,0.013129117898643017,-0.1923065185546875,0.96356201171875,-0.1881103515625
27.72,0.0020240023732185364,0.000669518718495965,0.014606107026338577,-0.18505859375,0.964599609375,-0.186920166015625
27.74,0.01691187173128128,-0.0021728731226176023,0.007821171544492245,-0.17376708984375,0.9616851806640625,-0.1854248046875
27.76,-0.0017512947088107467,0.015077220275998116,0.005517270881682634,-0.190704345703125,0.9569244384765625,-0.195220947265625
27.78,-0.006883472204208374,0.031139276921749115,0.0038304245099425316,-0.1964263916015625,0.956329345703125,-0.193084716796875
27.8,-0.022223547101020813,0.010874485597014427,0.006269347388297319,-0.1966705322265625,0.9632110595703125,-0.195159912109375
27.82,-0.011476626619696617,-0.02532746084034443,0.0035513252951204777,-0.191192626953125,0.962554931640625,-0.1818084716796875
27.84,-0.004463191609829664,-0.013089170679450035,0.008171643130481243,-0.1810150146484375,0.9617767333984375,-0.184417724609375
27.86,-0.008329036645591259,0.016051404178142548,0.0034932682756334543,-0.1732940673828125,0.9565582275390625,-0.1923675537109375
27.88,-0.01631532423198223,0.03509460389614105,0.003478354774415493,-0.1840362548828125,0.96124267578125,-0.1940765380859375
27.9,-0.01344763208180666,0.019122827798128128,0.0015899071004241705,-0.191986083984375,0.9624176025390625,-0.1878662109375
27.92,-0.0026666230987757444,-0.029213545843958855,0.0038991342298686504,-0.1925201416015625,0.9652252197265625,-0.1764678955078125
27.94,-0.012046809308230877,-0.015423431061208248,0.006049636751413345,-0.1905059814453125,0.960052490234375,-0.1827850341796875
27.96,-0.014939534477889538,0.021408086642622948,0.00316063966602087,-0.19281005859375,0.9600830078125,-0.1886749267578125
27.98,-0.015143533237278461,0.009549829177558422,0.006462160497903824,-0.189483642578125,0.9614715576171875,-0.1865997314453125
28,-0.011917379684746265,-0.0023901870008558035,0.00016298545233439654,-0.188720703125,0.962738037109375,-0.1783599853515625
28.02,-0.012790895998477936,-0.007837416604161263,-0.000574177538510412,-0.1895904541015625,0.9599456787109375,-0.1798553466796875
28.04,-0.0007158577209338546,-0.017782459035515785,-0.0026173547375947237,-0.1851959228515625,0.957550048828125,-0.1790924072265625
28.06,-0.0023997745011001825,-0.008165784180164337,0.006067746318876743,-0.1860198974609375,0.964019775390625,-0.184417724609375
28.08,-0.006462160497903824,-0.008075503632426262,0.006372944451868534,-0.1839141845703125,0.963714599609375,-0.1784515380859375
28.1,-0.0006378270918503404,-0.007506652269512415,0.0010186590952798724,-0.1855621337890625,0.958587646484375,-0.1788482666015625
28.12,-0.006199572701007128,-0.013192234560847282,-0.0007795072160661221,-0.185882568359375,0.96343994140625,-0.17962646484375
28.14,-0.01401914656162262,0.0063005066476762295,-0.000055660068028373644,-0.1926116943359375,0.959625244140625,-0.1781463623046875
28.16,-0.01593955233693123,0.01227264478802681,-0.0009456885163672268,-0.191650390625,0.9596405029296875,-0.1793975830078125
28.18,-0.010335195809602737,-0.004649879410862923,-0.00019121496006846428,-0.1850433349609375,0.9639434814453125,-0.1788177490234375
28.2,-0.0090555464848876,0.006325007416307926,0.0027654264122247696,-0.1806640625,0.9628143310546875,-0.178558349609375
28.22,-0.000180029688635841,0.00036458674003370106,0.000264718197286129,-0.176239013671875,0.963836669921875,-0.18206787109375
28.24,-0.004314054735004902,-0.04234319552779198,0.003981692250818014,-0.18231201171875,0.96026611328125,-0.1788177490234375
28.26,0.002886600326746702,-0.04626789689064026,0.002261023735627532,-0.191436767578125,0.9643096923828125,-0.18072509765625
28.28,-0.00041278995922766626,-0.013939783908426762,-0.0026849990244954824,-0.194793701171875,0.962310791015625,-0.1842193603515625
28.3,-0.006135390605777502,-0.006402239203453064,0.0002854908525478095,-0.1918487548828125,0.9597320556640625,-0.17950439453125
28.32,-0.001487375469878316,-0.014420217834413052,-0.00008202536264434457,-0.177764892578125,0.9589080810546875,-0.1749420166015625
28.34,0.0016365124611184,-0.009882990270853043,0.0033952640369534492,-0.17755126953125,0.9680328369140625,-0.1771240234375
28.36,-0.0030370689928531647,-0.002642654813826084,0.006595051847398281,-0.17718505859375,0.964019775390625,-0.1789093017578125
28.38,-0.0031486554071307182,-0.005504487548023462,0.010497115552425385,-0.180938720703125,0.960205078125,-0.1766510009765625
28.4,-0.011410846374928951,0.0008689894457347691,0.006342584267258644,-0.188079833984375,0.959930419921875,-0.1810150146484375
28.42,-0.000990962260402739,-0.014306501485407352,0.001047154888510704,-0.1977996826171875,0.9611663818359375,-0.1749420166015625
28.44,-0.001582982949912548,-0.03626799210906029,-0.004313788376748562,-0.201934814453125,0.96636962890625,-0.1762237548828125
28.46,-0.006308495998382568,-0.0043984767980873585,-0.012344017624855042,-0.196014404296875,0.9664459228515625,-0.17840576171875
28.48,-0.02473677136003971,0.05150819942355156,-0.013623400591313839,-0.18609619140625,0.973480224609375,-0.1786041259765625
28.5,-0.03752633556723595,0.13057531416416168,-0.03243996575474739,-0.1741943359375,0.964630126953125,-0.18353271484375
28.52,-0.054372694343328476,0.1968744546175003,-0.04187101870775223,-0.1659088134765625,0.966705322265625,-0.19091796875
28.54,-0.051654670387506485,0.24570296704769135,-0.06254593282938004,-0.1640167236328125,0.97454833984375,-0.1895599365234375
28.56,-0.04981629177927971,0.2176782637834549,-0.07371709495782852,-0.1884307861328125,0.966888427734375,-0.1771392822265625
28.58,-0.040463004261255264,0.22316543757915497,-0.08221045136451721,-0.205413818359375,0.96063232421875,-0.1670074462890625
28.6,-0.03422428295016289,0.25339072942733765,-0.08247330784797668,-0.205535888671875,0.96966552734375,-0.1750030517578125
28.62,-0.04880562424659729,0.2897825539112091,-0.08287224918603897,-0.206024169921875,0.971435546875,-0.1802520751953125
28.64,-0.08478093147277832,0.24032418429851532,-0.07095087319612503,-0.214019775390625,0.97027587890625,-0.171875
28.66,-0.10793472081422806,0.17574386298656464,-0.06053764745593071,-0.2283172607421875,0.9665985107421875,-0.1625518798828125
28.68,-0.11950269341468811,0.18569689989089966,-0.040530115365982056,-0.226837158203125,0.986236572265625,-0.16583251953125
28.7,-0.14628158509731293,0.163498654961586,-0.030299315229058266,-0.218170166015625,0.9880523681640625,-0.161163330078125
28.72,-0.16030418872833252,0.09204603731632233,-0.03683018684387207,-0.2445068359375,0.9809112548828125,-0.147003173828125
28.74,-0.08826833963394165,-0.12201139330863953,-0.018017616122961044,-0.2583770751953125,0.9742279052734375,-0.1374053955078125
28.76,0.020187294110655785,-0.4710245132446289,0.03779851272702217,-0.2476043701171875,0.9544830322265625,-0.166412353515625
28.78,0.011636416427791119,-0.6079275012016296,0.0942937433719635,-0.243804931640625,0.9524993896484375,-0.18011474609375
28.8,-0.04621942713856697,-0.5632180571556091,0.08741160482168198,-0.22332763671875,0.977996826171875,-0.1525115966796875
28.82,-0.025975674390792847,-0.49393728375434875,0.059604473412036896,-0.2177276611328125,0.9842071533203125,-0.147430419921875
28.84,-0.018739866092801094,-0.3476884663105011,0.099849633872509,-0.206390380859375,0.9766082763671875,-0.1697540283203125
28.86,-0.07365051656961441,-0.2760313153266907,0.15134930610656738,-0.1863555908203125,0.9594879150390625,-0.15118408203125
28.88,-0.07437143474817276,-0.251161128282547,0.12886583805084229,-0.189300537109375,0.9457550048828125,-0.1384735107421875
28.9,-0.0538424588739872,-0.16424433887004852,0.09589403867721558,-0.2162933349609375,0.9493255615234375,-0.1550140380859375
28.92,-0.046910785138607025,-0.1117560938000679,0.07054819911718369,-0.2723541259765625,0.969390869140625,-0.1478118896484375
28.94,-0.0777382031083107,-0.14359444379806519,0.055563393980264664,-0.3231201171875,0.9747161865234375,-0.1388092041015625
28.96,-0.06591163575649261,-0.20987467467784882,0.019839217886328697,-0.3329010009765625,0.9665679931640625,-0.1207122802734375
28.98,-0.016743293032050133,-0.30378463864326477,-0.027455059811472893,-0.3124542236328125,0.9467315673828125,-0.1308746337890625
29,-0.00452843913808465,-0.3581315279006958,-0.038831017911434174,-0.265228271484375,0.937347412109375,-0.122406005859375
29.02,-0.018277807161211967,-0.35562893748283386,0.017856761813163757,-0.22161865234375,0.947174072265625,-0.106658935546875
