timestamp,gyro_x,gyro_y,gyro_z,acc_x,acc_y,acc_z
0,-0.0009693906176835299,0.0007062703371047974,0.0013177321525290608,0.00213623046875,-0.0150299072265625,-1.0022430419921875
0.02,-0.0016876452136784792,0.004545749630779028,0.0006420881254598498,0.00213623046875,-0.0150299072265625,-1.0022430419921875
0.04,0.0006500775925815105,0.0036077843979001045,-0.0003195793251506984,0.0021820068359375,-0.01611328125,-0.9986724853515625
0.06,0.0020040287636220455,0.0035270904190838337,-0.0008362325606867671,0.0017852783203125,-0.01470947265625,-1.001007080078125
0.08,0.0035987296141684055,0.004745486658066511,-0.00155262288171798,0.0017852783203125,-0.01470947265625,-1.001007080078125
0.1,0.004567055031657219,0.005058940965682268,-0.0009472863748669624,0.003387451171875,-0.0146636962890625,-1.0003662109375
0.12,0.000743820914067328,0.0013366405619308352,0.0003158508916385472,0.002471923828125,-0.0153656005859375,-1.000244140625
0.14,0.0010641991393640637,0.00395585922524333,0.00012010856153210625,0.0028533935546875,-0.0154571533203125,-1.000518798828125
0.16,0.001689775730483234,0.0027326694689691067,0.0016133430181071162,0.0018310546875,-0.0157928466796875,-1.0012664794921875
0.18,-0.0002894856152124703,0.004334294702857733,-0.0027949875220656395,0.0024566650390625,-0.01483154296875,-0.99920654296875
0.2,-0.00010972223390126601,0.005163869354873896,0.0032085764687508345,0.0020904541015625,-0.0146942138671875,-1.0002899169921875
0.22,0.0000900148443179205,0.0059684100560843945,-0.0005789712304249406,0.001983642578125,-0.0162811279296875,-1.0000152587890625
0.24,0.0024471788201481104,0.0037763623986393213,0.0016202671686187387,0.001983642578125,-0.0162811279296875,-1.0000152587890625
0.26,0.002320678671821952,0.0034048515371978283,-0.00039840888348408043,0.001495361328125,-0.014801025390625,-1.00042724609375
0.28,0.0014354437589645386,0.0037356161046773195,0.00011424961121520028,0.0032501220703125,-0.01611328125,-1.001373291015625
0.3,0.001930525409989059,0.0044083306565880775,0.0004644552827812731,0.00262451171875,-0.0138397216796875,-1.0003204345703125
0.32,0.0039039277471601963,0.004308728501200676,-0.0006764429272152483,0.0013580322265625,-0.0159759521484375,-1.000091552734375
0.34,-0.0013235911028459668,0.004481034819036722,-0.0001853560097515583,0.0014495849609375,-0.0142059326171875,-0.9999847412109375
0.36,0.0001334243715973571,0.005818208213895559,-0.000025832661776803434,0.0014495849609375,-0.0142059326171875,-0.9999847412109375
0.38,0.0007222492713481188,0.004185690078884363,0.0003081277245655656,0.0015106201171875,-0.015167236328125,-0.9996337890625
0.4,-0.00003462109452812001,0.004919923841953278,-0.0004852279380429536,0.0026397705078125,-0.0152435302734375,-1.000946044921875
0.42,0.0001424791116733104,0.0057044909335672855,0.0005046690348535776,0.002410888671875,-0.01544189453125,-1.0006866455078125
0.44,0.0012458267156034708,0.006315952632576227,0.0008615325787104666,0.0023345947265625,-0.0147552490234375,-1.0005035400390625
0.46,0.0010295780375599861,0.0034967304673045874,0.00042504051816649735,0.002288818359375,-0.01483154296875,-1.0019073486328125
0.48,0.0009166600648313761,0.0027089675422757864,-0.00030839405371807516,0.00274658203125,-0.01470947265625,-0.99993896484375
0.5,0.0026559706311672926,0.006578007712960243,0.0011808456620201468,0.0031585693359375,-0.0154571533203125,-1.002349853515625
0.52,0.0019587550777941942,0.004246943164616823,0.00007909588020993397,0.003387451171875,-0.0143890380859375,-1.0003204345703125
0.54,-0.0006996124284341931,0.004723382648080587,-0.0014679343439638615,0.0015716552734375,-0.0154571533203125,-0.99969482421875
0.56,0.004578240215778351,0.003571032779291272,0.0014716627774760127,0.00115966796875,-0.0154266357421875,-1.0008697509765625
0.58,0.0020852552261203527,0.004763862583786249,-0.0004844290087930858,0.0015411376953125,-0.0152587890625,-1.001312255859375
0.6,0.0017214673571288586,0.004576908424496651,-0.0006476807757280767,0.0028228759765625,-0.015472412109375,-0.9990997314453125
0.62,0.0003757720405701548,0.005829127039760351,0.0006548712844960392,0.0019073486328125,-0.014984130859375,-1.0013275146484375
0.64,0.0017470336752012372,0.004040015395730734,-0.0001334243715973571,0.0013427734375,-0.0146636962890625,-1.0009002685546875
0.66,-0.0008450209861621261,0.0041542649269104,0.00045593318645842373,0.0027923583984375,-0.015380859375,-1.0001220703125
0.68,0.00005352953667170368,0.0028762139845639467,0.0005499427788890898,0.002899169921875,-0.0150299072265625,-1.0019683837890625
0.7,-0.0005203816690482199,0.004641090985387564,0.002290318487212062,0.001983642578125,-0.0140838623046875,-1.00091552734375
0.72,0.000218645524000749,0.0049588060937821865,-0.0015571502735838294,0.0025177001953125,-0.01373291015625,-1.000946044921875
0.74,0.0016636766958981752,0.0028820729348808527,-0.0001179780374513939,0.0026397705078125,-0.0151824951171875,-1.0009918212890625
0.76,-0.0001430117554264143,0.005136172287166119,-0.0014141384745016694,0.002532958984375,-0.0147705078125,-1.0006561279296875
0.78,0.0001496696495451033,0.0033694314770400524,-0.0011286477092653513,0.00286865234375,-0.0149383544921875,-0.9983978271484375
0.8,0.0008335694437846541,0.006284793838858604,0.0003153182624373585,0.003814697265625,-0.013946533203125,-1.0026397705078125
0.82,0.0009422263829037547,0.004027764778584242,-0.0005906891310587525,0.001190185546875,-0.014862060546875,-1.00048828125
0.84,0.0024431839119642973,0.002855441300198436,-0.0006474144756793976,0.0026092529296875,-0.0163116455078125,-1.0016021728515625
0.86,0.0005656554130837321,0.0052171326242387295,0.0015608787070959806,0.000701904296875,-0.016510009765625,-1.0015869140625
0.88,0.0028269453905522823,0.005123655777424574,0.0005067995516583323,0.0011749267578125,-0.015777587890625,-0.99920654296875
0.9,0.0009257147903554142,0.004804342519491911,0.00024288028362207115,0.0007781982421875,-0.0167083740234375,-0.9996795654296875
0.92,0.0026205505710095167,0.0016982977977022529,0.001210673013702035,0.0015869140625,-0.0164337158203125,-1.0030517578125
0.94,0.00003808320252574049,0.007139136083424091,-0.0010253170039504766,0.0035858154296875,-0.0155792236328125,-1.0006103515625
0.96,-0.0014295848086476326,0.006956176832318306,0.00014620754518546164,0.00189208984375,-0.0159454345703125,-1.0009765625
0.98,0.00015286543930415064,0.006126868538558483,-0.00026258768048137426,0.0019073486328125,-0.01617431640625,-1.0001068115234375
1,0.0014330470003187656,0.004625378176569939,0.0009989517275243998,0.0019073486328125,-0.01617431640625,-1.0001068115234375
1.02,0.003185939509421587,0.0059963734820485115,-0.0004942826926708221,0.001251220703125,-0.015838623046875,-1.0004119873046875
1.04,0.0011893677292391658,0.005730856209993362,-0.00019281286222394556,0.001251220703125,-0.015838623046875,-1.0004119873046875
1.06,0.0017648768844082952,0.003191798459738493,0.002323608146980405,0.0035247802734375,-0.01458740234375,-1.00048828125
1.08,0.0012740562669932842,0.0062768044881522655,-0.00004873584839515388,0.0013427734375,-0.0161285400390625,-1.0000762939453125
1.1,-0.00009081379539566115,0.0025308020412921906,-0.0006860303110443056,0.00244140625,-0.0157012939453125,-1.00103759765625
1.12,0.0036250948905944824,0.005419000051915646,0.000660463934764266,0.00244140625,-0.0157012939453125,-1.00103759765625
1.14,-0.0015701997326686978,0.005561745725572109,-0.001710814656689763,0.00390625,-0.014190673828125,-1.00018310546875
1.16,-0.00043649208964779973,0.005901298485696316,0.0005901564727537334,0.001190185546875,-0.0137481689453125,-0.9994964599609375
1.18,0.0009749832679517567,0.005560680292546749,-0.00002210423735959921,0.002197265625,-0.0146484375,-1.000213623046875
1.2,0.00022370553051587194,0.0019270633347332478,-0.0004396878939587623,0.003173828125,-0.015594482421875,-1.0015411376953125
1.22,0.0019856528379023075,0.003266633255407214,-0.00041678472189232707,0.0020294189453125,-0.0163421630859375,-1.0009918212890625
1.24,-0.0010253170039504766,0.003640541108325124,0.0003051982494071126,0.0020294189453125,-0.0163421630859375,-1.0009918212890625
1.26,0.0011864382540807128,0.0032650355715304613,0.0021084246691316366,0.00396728515625,-0.01580810546875,-1.00006103515625
1.28,0.0015795208746567369,0.004941761493682861,0.00041571943438611925,0.0015106201171875,-0.0138702392578125,-1.0004730224609375
1.3,-0.000036751622246811166,0.003300189273431897,0.0011973571963608265,0.0016021728515625,-0.0147247314453125,-0.9996185302734375
1.32,-0.000004261057711119065,0.0035510589368641376,0.000969656917732209,0.0022125244140625,-0.014495849609375,-0.99896240234375
1.34,-0.0005227785441093147,0.004688494838774204,-0.00002663161103555467,0.0012054443359375,-0.0150146484375,-1.0006103515625
1.36,0.0020248014479875565,0.00358860963024199,0.0012333098566159606,0.002593994140625,-0.0144805908203125,-1.0026397705078125
1.38,0.0007696535321883857,0.005146026145666838,0.0005187837523408234,0.0005340576171875,-0.0149688720703125,-1.000640869140625
1.4,0.0025156219489872456,0.003522030543535948,0.0015305186389014125,0.0025787353515625,-0.0157928466796875,-0.999969482421875
1.42,-0.0007739146240055561,0.004521781112998724,0.0022863238118588924,0.0022430419921875,-0.014801025390625,-1.0019989013671875
1.44,-0.00028096348978579044,0.0031523837242275476,-0.0011211908422410488,0.0022430419921875,-0.014801025390625,-1.0019989013671875
1.46,0.0032405343372374773,0.004984105937182903,-0.0003664509567897767,0.00177001953125,-0.0154876708984375,-1.0016937255859375
1.48,0.0008197209681384265,0.003951598424464464,-0.00015393071225844324,0.0027313232421875,-0.0151824951171875,-1.001129150390625
1.5,-0.00028575718170031905,0.004472779110074043,0.0005062668933533132,0.003173828125,-0.0157470703125,-1.0015869140625
1.52,0.0003406183095648885,0.00634870957583189,-0.00039654469583183527,0.0029296875,-0.0153656005859375,-1.0021820068359375
1.54,-0.0003328951424919069,0.0057588196359574795,-0.0010692591313272715,0.0015716552734375,-0.015838623046875,-1.0013885498046875
1.56,-0.0001270327775273472,0.003861849894747138,0.0018540926976129413,0.002899169921875,-0.01641845703125,-1.0004119873046875
1.58,-0.002246376359835267,0.0029617014806717634,0.00047830372932367027,0.001556396484375,-0.0157928466796875,-0.9993438720703125
1.6,0.0038983351550996304,0.004187021870166063,0.0011030812747776508,0.00323486328125,-0.0147705078125,-1.002593994140625
1.62,0.002088717184960842,0.006362025626003742,-0.000693220819812268,0.00238037109375,-0.0159912109375,-1.0017242431640625
1.64,0.0028602350503206253,0.004372644238173962,0.00011185276525793597,0.0053253173828125,-0.0150909423828125,-1.0001678466796875
1.66,0.002630137838423252,0.006227003410458565,-0.0015153386630117893,0.0021514892578125,-0.01666259765625,-1.001495361328125
1.68,-0.00035926041891798377,0.003772634081542492,-0.0007627293234691024,0.0052642822265625,-0.015350341796875,-1.0004425048828125
1.7,0.00019148127466905862,0.0024802018888294697,-0.002273007994517684,0.002838134765625,-0.0160064697265625,-1.0000762939453125
1.72,-0.0016338493442162871,0.005477056838572025,0.00033182985498569906,0.00372314453125,-0.015228271484375,-0.9999237060546875
1.74,0.0023164174053817987,0.003915379289537668,0.0006620618514716625,0.0026397705078125,-0.0157012939453125,-0.9999847412109375
1.76,-0.0026059031952172518,0.005285043269395828,0.0000977380113909021,0.002593994140625,-0.016021728515625,-1.002166748046875
1.78,0.0010306433541700244,0.0027598338201642036,0.00011664645717246458,0.002593994140625,-0.016021728515625,-1.002166748046875
1.8,0.0016615461790934205,0.003537476761266589,0.0008356999605894089,0.0020751953125,-0.0148773193359375,-1.00079345703125
1.82,0.0005720470217056572,0.004490355961024761,0.0003028014034498483,0.00531005859375,-0.0155181884765625,-1.001434326171875
1.84,-0.0015600797487422824,0.005541505757719278,0.0007209177128970623,0.00396728515625,-0.0146484375,-1.001556396484375
1.86,0.0009315737406723201,0.003085538512095809,0.000036751622246811166,0.0034637451171875,-0.0147552490234375,-1.001556396484375
1.88,0.002776345470920205,0.006344182416796684,-0.0002926813904196024,0.0026702880859375,-0.014892578125,-1.0005035400390625
1.9,0.0021342572290450335,0.0065678879618644714,0.0010189254535362124,0.0026702880859375,-0.014892578125,-1.0005035400390625
1.92,0.0012210593558847904,0.003963049966841936,-0.00018855179951060563,0.0020294189453125,-0.014373779296875,-0.9992523193359375
1.94,0.0006332996999844909,0.0057798586785793304,-0.0015901734586805105,0.0020294189453125,-0.014373779296875,-0.9992523193359375
1.96,0.0000045273736759554595,0.005399292800575495,-0.0003707120195031166,0.0050506591796875,-0.013946533203125,-1.001556396484375
1.98,0.0015140071045607328,0.006046174559742212,-0.00018269284919369966,0.001800537109375,-0.0133056640625,-0.9997711181640625
2,0.0026224146131426096,0.003312173532322049,0.0012828446924686432,0.004608154296875,-0.0155487060546875,-1.0015106201171875
2.02,0.0029617014806717634,0.0031734227668493986,-0.001678057829849422,0.004608154296875,-0.0155487060546875,-1.0015106201171875
2.04,-0.0002335592289455235,0.002897519152611494,0.00010120012302650139,0.0029296875,-0.0160369873046875,-1.0017547607421875
2.06,0.0018034926615655422,0.006750048138201237,-0.00042344260145910084,0.00140380859375,-0.016021728515625,-0.99932861328125
2.08,0.0020088222809135914,0.00025592977181077003,0.00043995422311127186,0.0019378662109375,-0.0156402587890625,-1.0017852783203125
2.1,0.0008175904513336718,0.003894340479746461,0.002351038623601198,0.0040740966796875,-0.0156707763671875,-1.0012054443359375
2.12,0.002243446884676814,0.002944923471659422,0.0014213290996849537,0.00341796875,-0.0151824951171875,-1.000762939453125
2.14,0.0017302557826042175,0.002171008847653866,0.0017784589435905218,0.0018463134765625,-0.01629638671875,-1.0002593994140625
2.16,0.0018160095205530524,0.005464540328830481,0.0003483414766378701,0.0037689208984375,-0.015960693359375,-1.00225830078125
2.18,0.003644269658252597,0.002725212834775448,0.0005699164466932416,0.0048828125,-0.0166015625,-1.0023345947265625
2.2,0.0017664746847003698,0.007780957501381636,-0.000355532014509663,0.0034027099609375,-0.01513671875,-1.0019683837890625
2.22,0.0006178533658385277,0.005480785388499498,-0.0008748483960516751,0.00408935546875,-0.015411376953125,-1.001068115234375
2.24,0.0021233384031802416,0.004762264434248209,-0.0014466290595009923,0.0038909912109375,-0.016571044921875,-1.0011444091796875
2.26,0.0006348976166918874,0.0037084517534822226,0.00012996226723771542,0.0038909912109375,-0.016571044921875,-1.0011444091796875
2.28,-0.00010812433902174234,0.003753991797566414,0.001531850197352469,0.0026092529296875,-0.016357421875,-1.00146484375
2.3,0.001591505017131567,0.005879460833966732,-0.000502804818097502,0.002685546875,-0.0151214599609375,-0.999847412109375
2.32,0.0013587448047474027,0.0057407100684940815,-0.0023494407068938017,0.004058837890625,-0.0150604248046875,-1.001434326171875
2.34,0.0019473034190014005,0.0033475933596491814,-0.0002902845444623381,0.0031585693359375,-0.01409912109375,-1.00128173828125
2.36,0.002216815249994397,0.004866394214332104,0.00007403588097076863,0.004364013671875,-0.0153961181640625,-1.0003814697265625
2.38,0.0028756812680512667,0.004259193316102028,-0.00005858954318682663,0.00189208984375,-0.0148162841796875,-1.0003662109375
2.4,0.0009406284661963582,0.005028580781072378,-0.0007635282818228006,0.003570556640625,-0.01678466796875,-1.0019989013671875
2.42,0.002498843939974904,0.002728142309933901,0.0004854942671954632,0.0029449462890625,-0.014739990234375,-1.000701904296875
2.44,-0.00003888214996550232,0.0038535939529538155,-0.0005299690528772771,0.0045623779296875,-0.015838623046875,-1.001617431640625
2.46,0.004355600103735924,0.003704457078129053,-0.00044554684427566826,0.004058837890625,-0.0157470703125,-1.001068115234375
2.48,0.0014333132421597838,0.0054363105446100235,-0.0001512675517005846,0.004058837890625,-0.0157470703125,-1.001068115234375
2.5,-0.0004977448261342943,0.002151301596313715,0.0014064153656363487,0.0027008056640625,-0.0157470703125,-1.000091552734375
2.52,0.0008396946941502392,0.004661597311496735,0.001371527905575931,0.0028839111328125,-0.0155029296875,-0.999969482421875
2.54,0.0022008363157510757,0.003992877434939146,-0.001103880233131349,0.003143310546875,-0.0145111083984375,-1.001190185546875
2.56,0.002573412610217929,0.003436809405684471,-0.00034594463068060577,0.0031890869140625,-0.015106201171875,-1.001007080078125
2.58,-0.00003062635369133204,0.004233360756188631,-0.001255680457688868,0.0031890869140625,-0.015106201171875,-1.001007080078125
2.6,0.0021587584633380175,0.0022825952619314194,0.000291616132017225,0.0052490234375,-0.0144500732421875,-1.001556396484375
2.62,0.0003605920064728707,0.0030245520174503326,0.0005251753609627485,0.00396728515625,-0.01580810546875,-1.0017852783203125
2.64,0.0009017463307827711,0.004606735892593861,0.0011648666113615036,0.0040130615234375,-0.014984130859375,-1.0023193359375
2.66,0.0022213426418602467,0.0026077672373503447,0.001832787413150072,0.003509521484375,-0.0144805908203125,-1.00091552734375
2.68,0.003430151380598545,0.002852511825039983,0.0010511496802791953,0.003509521484375,-0.0144805908203125,-1.00091552734375
2.7,0.0013968279818072915,0.004452805500477552,0.00022370553051587194,0.0040283203125,-0.01715087890625,-1.000396728515625
2.72,-0.0008231831016018987,0.007156446576118469,0.0011733887949958444,0.00341796875,-0.0159759521484375,-1.001251220703125
2.74,0.0008261125767603517,0.0033004553988575935,0.0014088122406974435,0.0035400390625,-0.0146484375,-1.001708984375
2.76,0.0026194851379841566,0.005067729391157627,0.001086037140339613,0.00311279296875,-0.01531982421875,-1.0012664794921875
2.78,-0.0014239922165870667,0.005178516730666161,0.0006998787284828722,0.002838134765625,-0.0149993896484375,-1.00030517578125
2.8,0.001576857641339302,0.002561428351327777,0.00009108010999625549,0.00335693359375,-0.015594482421875,-1.0015716552734375
2.82,0.0029467877466231585,0.004749747924506664,-0.0005715143634006381,0.004180908203125,-0.015045166015625,-1.0008087158203125
2.84,-0.0010937602492049336,0.004320978652685881,0.0015017564874142408,0.001495361328125,-0.0150146484375,-1.0016021728515625
2.86,0.0019257317762821913,0.005422462243586779,-0.0009414274245500565,0.0031280517578125,-0.014801025390625,-1.001678466796875
2.88,0.004495149478316307,0.0027457191608846188,-0.00027563716867007315,0.0030975341796875,-0.0150604248046875,-1.0015106201171875
2.9,0.0010452907299622893,0.0046661244705319405,-0.000026897927455138415,0.002655029296875,-0.0139923095703125,-1.002227783203125
2.92,0.00038056570338085294,0.0057127466425299644,-0.00024714134633541107,0.003387451171875,-0.0141448974609375,-1.0009002685546875
2.94,-0.0005171858938410878,0.004806739278137684,-0.0011004181578755379,0.0029144287109375,-0.0165557861328125,-1.0005950927734375
2.96,0.0008673915872350335,0.004397944081574678,-0.0024794030468910933,0.0047760009765625,-0.01531982421875,-1.001129150390625
2.98,0.003329750383272767,0.005709018558263779,0.0001776328426785767,0.00244140625,-0.0149688720703125,-0.9982452392578125
3,-0.000517718493938446,0.004712463356554508,0.00002450108149787411,0.0047760009765625,-0.015380859375,-1.002838134765625
3.02,0.000943025341257453,0.004478904418647289,0.0010080065112560987,0.0021209716796875,-0.0153961181640625,-1.001220703125
3.04,0.0033220271579921246,0.004661597311496735,-0.0002359560749027878,0.0030517578125,-0.0166473388671875,-1.001190185546875
3.06,0.0015805860748514533,0.0033936661202460527,-0.0005195827106945217,0.00164794921875,-0.0159759521484375,-0.9983367919921875
3.08,0.002531068166717887,0.0057319216430187225,0.0004780374001711607,0.00469970703125,-0.01593017578125,-0.999237060546875
3.1,-0.017602961510419846,-0.03455185145139694,0.0945022702217102,0.0036773681640625,-0.01446533203125,-0.9995574951171875
3.12,-0.025074992328882217,-0.06383996456861496,1.0901641845703125,0.0206298828125,-0.019561767578125,-0.9808502197265625
3.14,-0.01552383229136467,-0.05162830650806427,1.0379319190979004,0.695159912109375,-0.0118408203125,-0.982635498046875
3.16,-0.011522965505719185,-0.032951027154922485,0.9253336787223816,-0.038848876953125,-0.036163330078125,-1.0082550048828125
3.18,-0.30122268199920654,-0.8837782740592957,0.676562488079071,-0.085968017578125,-0.0617218017578125,-1.0111236572265625
3.2,-0.18140707910060883,-0.6418678760528564,0.7867555618286133,-0.0565948486328125,-0.0131683349609375,-0.9930267333984375
3.22,0.29906365275382996,0.7992958426475525,1.2912800312042236,0.0847015380859375,-0.01910400390625,-1.0677032470703125
3.24,0.47166791558265686,1.1744390726089478,1.608535647392273,0.1373138427734375,0.0516510009765625,-1.022857666015625
3.26,-0.008844091556966305,-0.10462681204080582,1.9895671606063843,-0.106231689453125,0.2381591796875,-1.0809326171875
3.28,0.17397312819957733,-0.061715029180049896,1.7905553579330444,0.09967041015625,0.274658203125,-0.695404052734375
3.3,0.3377884328365326,0.2489834576845169,1.310598611831665,-0.228607177734375,0.0553741455078125,-1.1291046142578125
3.32,0.37806448340415955,0.4582008421421051,0.7052532434463501,-0.3926849365234375,-0.053375244140625,-1.114105224609375
3.34,0.5603088736534119,0.7822558879852295,0.14772208034992218,-0.2592620849609375,-0.1464996337890625,-1.04620361328125
3.36,0.6407027840614319,1.463503360748291,-0.29467689990997314,-0.214569091796875,-0.1453094482421875,-1.17889404296875
3.38,1.0596121549606323,1.103713870048523,-0.7006539702415466,-0.205291748046875,-0.1357574462890625,-1.180206298828125
3.4,1.6194778680801392,0.8517492413520813,-1.0156593322753906,-0.2245330810546875,-0.15838623046875,-1.150238037109375
3.42,2.179654598236084,1.044917345046997,-1.327435851097107,-0.20831298828125,-0.1991729736328125,-1.249725341796875
3.44,2.5016400814056396,1.4319223165512085,-1.5039706230163574,-0.193450927734375,-0.3037872314453125,-1.326446533203125
3.46,2.8207590579986572,1.9701343774795532,-1.3049862384796143,-0.081298828125,-0.3055267333984375,-1.1885833740234375
3.48,3.140533447265625,1.5558676719665527,-0.9389603137969971,0.042144775390625,-0.241668701171875,-1.22540283203125
3.5,3.066471576690674,0.5048516988754272,-1.00690495967865,0.1911468505859375,-0.2115020751953125,-1.130706787109375
3.52,2.8666832447052,-0.49886706471443176,-1.0939373970031738,0.1568756103515625,-0.3113250732421875,-0.98687744140625
3.54,3.0064797401428223,-0.5380179286003113,-1.0692658424377441,0.316986083984375,-0.4001312255859375,-0.899322509765625
3.56,3.1911301612854004,0.39325806498527527,-0.9383344650268555,0.488006591796875,-0.4409637451171875,-0.9920501708984375
3.58,3.0949904918670654,0.6614328026771545,-0.6067922115325928,0.4586029052734375,-0.388031005859375,-1.056243896484375
3.6,3.02543306350708,0.422567754983902,-0.34880805015563965,0.5156097412109375,-0.36676025390625,-0.8710784912109375
3.62,3.15801739692688,0.07777974754571915,-0.04054955765604973,0.5029754638671875,-0.3720703125,-0.72161865234375
3.64,3.31766414642334,0.2282606065273285,0.3466423749923706,0.5517120361328125,-0.33648681640625,-0.63018798828125
3.66,3.3206963539123535,1.0653152465820312,0.6849618554115295,0.6209716796875,-0.3687744140625,-0.5699005126953125
3.68,2.95170259475708,0.7676194310188293,0.6886034607887268,0.5439300537109375,-0.3632354736328125,-0.6206207275390625
3.7,2.063347101211548,0.03515559062361717,0.47750771045684814,0.4044036865234375,-0.424468994140625,-0.5168304443359375
3.72,1.1181741952896118,0.27316656708717346,0.3875831365585327,0.35565185546875,-0.4561614990234375,-0.3640899658203125
3.74,0.7268027663230896,0.8633174300193787,0.11168605089187622,0.443023681640625,-0.5164794921875,-0.3222198486328125
3.76,0.8381167650222778,1.0860214233398438,-0.359169602394104,0.4391021728515625,-0.56695556640625,-0.342376708984375
3.78,1.0317163467407227,0.8542781472206116,-0.6248324513435364,0.3170166015625,-0.5786285400390625,-0.3534393310546875
3.8,0.817259669303894,0.5347039103507996,-0.5488290190696716,0.290374755859375,-0.5872039794921875,-0.37591552734375
3.82,0.2284637987613678,0.8628820180892944,-0.1776416301727295,0.32061767578125,-0.615997314453125,-0.3036956787109375
3.84,-1.471327781677246,0.8067729473114014,1.024091124534607,0.3169403076171875,-0.618072509765625,-0.229156494140625
3.86,-1.4406486749649048,0.9182957410812378,0.554254412651062,0.0272064208984375,-0.7901763916015625,-0.3200225830078125
3.88,-0.7630789875984192,1.5213956832885742,-0.0819539874792099,0.1594390869140625,-0.845733642578125,-0.4462890625
3.9,-0.2952819764614105,1.0410810708999634,-0.29062357544898987,0.23974609375,-0.789520263671875,-0.490447998046875
3.92,-0.1580391675233841,0.9738777875900269,-0.3295518159866333,0.324493408203125,-0.747833251953125,-0.512847900390625
3.94,-0.5278452038764954,0.3649015426635742,-0.37779122591018677,0.503021240234375,-0.654327392578125,-0.4407806396484375
3.96,-0.8808256387710571,-0.026916302740573883,-0.6570082306861877,0.495086669921875,-0.59619140625,-0.3092041015625
3.98,-1.1208113431930542,-0.2168007493019104,-0.577854573726654,0.409332275390625,-0.6353607177734375,-0.395538330078125
4,-1.1337212324142456,-0.8655356168746948,0.989485502243042,0.5579833984375,-0.6906585693359375,-0.484039306640625
4.02,-0.8413812518119812,-1.9596165418624878,1.52953040599823,0.9280853271484375,-1.0552825927734375,-0.4107208251953125
4.04,-1.3011219501495361,-0.5566001534461975,0.513676106929779,0.5745391845703125,-1.348968505859375,-0.53424072265625
4.06,-1.4116075038909912,-0.5776351094245911,0.016095079481601715,-0.0799713134765625,-1.1667327880859375,-0.589874267578125
4.08,-1.1698040962219238,-0.5846325755119324,0.34301939606666565,0.2196502685546875,-0.7750244140625,-0.5615234375
4.1,-0.5005326271057129,-0.8268577456474304,0.5305557250976562,0.4742431640625,-0.7769622802734375,-0.7716522216796875
4.12,0.10074924677610397,-0.8173403739929199,0.6364248991012573,0.4158935546875,-0.7896575927734375,-0.9246826171875
4.14,0.5467544198036194,-0.8472636342048645,0.5983848571777344,0.45159912109375,-0.66448974609375,-0.87451171875
4.16,0.7794521450996399,-0.8179473280906677,0.44639453291893005,0.34368896484375,-0.6871795654296875,-0.8074798583984375
4.18,0.7616488933563232,-0.8536943793296814,0.2885873317718506,0.2515411376953125,-0.6735382080078125,-0.757476806640625
4.2,0.6284287571907043,-0.9772107601165771,0.1645420789718628,0.1910247802734375,-0.6721343994140625,-0.6816253662109375
4.22,0.5276933908462524,-1.2252689599990845,0.004318848252296448,0.19366455078125,-0.6963348388671875,-0.645111083984375
4.24,0.45297014713287354,-1.4745994806289673,-0.16255642473697662,0.186126708984375,-0.6789703369140625,-0.6383209228515625
4.26,0.4608685374259949,-1.6702078580856323,-0.22810080647468567,0.17620849609375,-0.68963623046875,-0.6378173828125
4.28,0.47788161039352417,-1.7409001588821411,-0.1866372525691986,0.1801910400390625,-0.724945068359375,-0.6376495361328125
4.3,0.2503294050693512,-1.4281762838363647,0.06923659145832062,0.12603759765625,-0.7661590576171875,-0.57342529296875
4.32,0.09660190343856812,-0.9830331802368164,0.2485368400812149,0.12603759765625,-0.7661590576171875,-0.57342529296875
4.34,0.11871173977851868,-0.624865710735321,0.3618069291114807,0.0655059814453125,-0.808074951171875,-0.56439208984375
4.36,0.2579119801521301,-0.3464077413082123,0.38050952553749084,0.0766143798828125,-0.774871826171875,-0.609100341796875
4.38,0.3114430904388428,-0.2644590735435486,0.3419581353664398,0.0558013916015625,-0.7559814453125,-0.636199951171875
4.4,0.14290548861026764,-0.40132346749305725,0.2725990414619446,0.03399658203125,-0.7393646240234375,-0.616973876953125
4.42,-0.0893716886639595,-0.569046676158905,0.24376632273197174,0.0284576416015625,-0.7385711669921875,-0.563323974609375
4.44,-0.23810045421123505,-0.5921828746795654,0.27578204870224,0.032012939453125,-0.7640228271484375,-0.558135986328125
4.46,-0.27337029576301575,-0.4461868107318878,0.243783101439476,0.034149169921875,-0.762908935546875,-0.5782318115234375
4.48,-0.23295655846595764,-0.2538360059261322,0.21271812915802002,-0.0001068115234375,-0.7540283203125,-0.5987396240234375
4.5,-0.2247612029314041,-0.15324467420578003,0.12971246242523193,0.005035400390625,-0.742095947265625,-0.6185760498046875
4.52,-0.26131656765937805,-0.17994952201843262,0.027678232640028,-0.0261077880859375,-0.7402801513671875,-0.6148529052734375
4.54,-0.3310868442058563,-0.18872970342636108,-0.044325653463602066,-0.041534423828125,-0.7301177978515625,-0.6117706298828125
4.56,-0.4020233452320099,-0.22021812200546265,-0.09228971600532532,-0.0529632568359375,-0.744659423828125,-0.613616943359375
4.58,-0.4606512188911438,-0.4645831286907196,-0.1241816058754921,-0.0257568359375,-0.7433929443359375,-0.621734619140625
4.6,-0.4041900932788849,-0.36275264620780945,-0.011166367679834366,0.068206787109375,-0.7811737060546875,-0.6793212890625
4.62,-0.31567859649658203,-0.15514510869979858,-0.06530044227838516,0.068206787109375,-0.7811737060546875,-0.6793212890625
4.64,-0.22230949997901917,-0.14715589582920074,-0.16648511588573456,0.0122528076171875,-0.7464752197265625,-0.6615447998046875
4.66,-0.18652833998203278,-0.06375447660684586,-0.1865035593509674,-0.0180206298828125,-0.7301483154296875,-0.677093505859375
4.68,-0.1388241946697235,0.15242283046245575,-0.14771276712417603,-0.020477294921875,-0.747711181640625,-0.673004150390625
4.7,-0.0054421694949269295,0.20857317745685577,-0.14479473233222961,-0.00189208984375,-0.77301025390625,-0.67767333984375
4.72,0.14803767204284668,0.22452178597450256,-0.19839511811733246,0.027557373046875,-0.7474822998046875,-0.728759765625
4.74,0.29215967655181885,0.25503334403038025,-0.212028369307518,0.027557373046875,-0.7474822998046875,-0.728759765625
4.76,0.28335902094841003,0.32232239842414856,-0.24953925609588623,0.0417327880859375,-0.7479095458984375,-0.7118072509765625
4.78,0.1433611512184143,0.30318838357925415,-0.24917466938495636,0.009307861328125,-0.738037109375,-0.658447265625
4.8,0.0604308545589447,0.19186078011989594,-0.22978073358535767,0.0480194091796875,-0.734039306640625,-0.6715087890625
4.82,0.10911290347576141,0.11670663952827454,-0.22731225192546844,0.0480194091796875,-0.734039306640625,-0.6715087890625
4.84,0.24073244631290436,0.17429110407829285,-0.29502072930336,0.0684051513671875,-0.7356109619140625,-0.718658447265625
4.86,0.3279552459716797,0.1971285194158554,-0.3588170111179352,0.055694580078125,-0.7483367919921875,-0.7284088134765625
4.88,0.362714558839798,0.06422559171915054,-0.3902750611305237,0.0607147216796875,-0.7343597412109375,-0.7110595703125
4.9,0.3707652986049652,-0.13507339358329773,-0.42406952381134033,0.061614990234375,-0.744659423828125,-0.6916656494140625
4.92,0.4567406475543976,-0.2601229250431061,-0.5410648584365845,0.0691680908203125,-0.7433624267578125,-0.671356201171875
4.94,0.46760714054107666,-0.12521624565124512,-0.5827326774597168,0.0476226806640625,-0.7443084716796875,-0.6659088134765625
4.96,0.4069797396659851,-0.016810938715934753,-0.5359614491462708,0.08636474609375,-0.7688446044921875,-0.6322174072265625
4.98,0.3459973633289337,0.20249398052692413,-0.5050357580184937,0.0963592529296875,-0.7862548828125,-0.5822296142578125
5,0.3778599500656128,0.21702978014945984,-0.38212233781814575,0.0995025634765625,-0.7578887939453125,-0.5866851806640625
5.02,0.467245489358902,0.2128094732761383,-0.310784250497818,0.170928955078125,-0.7866363525390625,-0.6330108642578125
5.04,0.5066799521446228,0.17782644927501678,-0.21258443593978882,0.2121124267578125,-0.8000030517578125,-0.6475982666015625
5.06,0.4423995316028595,0.14213450253009796,-0.07863356173038483,0.2478179931640625,-0.8192901611328125,-0.619720458984375
5.08,0.32946792244911194,0.034271951764822006,0.01110112015157938,0.260650634765625,-0.8082427978515625,-0.566864013671875
5.1,0.17276965081691742,-0.053282395005226135,0.04095914959907532,0.229400634765625,-0.805419921875,-0.5313873291015625
5.12,-0.009368201717734337,-0.12057515233755112,0.10495784133672714,0.190277099609375,-0.8256072998046875,-0.4912261962890625
5.14,-0.1756996512413025,-0.1496552675962448,0.1742090880870819,0.181610107421875,-0.8365936279296875,-0.4597320556640625
5.16,-0.2490074187517166,-0.1629553586244583,0.1938198059797287,0.191986083984375,-0.836212158203125,-0.4569091796875
5.18,-0.28789597749710083,-0.17833246290683746,0.29013460874557495,0.189208984375,-0.8328857421875,-0.5505218505859375
5.2,-0.3234182894229889,-0.23732946813106537,0.3416556119918823,0.189208984375,-0.8328857421875,-0.5505218505859375
5.22,-0.4235387444496155,-0.2965741455554962,0.3504043519496918,0.1526947021484375,-0.80499267578125,-0.546661376953125
5.24,-0.5386043787002563,-0.399032860994339,0.4033386707305908,0.12811279296875,-0.8034515380859375,-0.556060791015625
5.26,-0.6077325344085693,-0.48016074299812317,0.4238969385623932,0.12652587890625,-0.7771453857421875,-0.584808349609375
5.28,-0.5343150496482849,-0.4512958228588104,0.33422619104385376,0.095550537109375,-0.76025390625,-0.612548828125
5.3,-0.39744776487350464,-0.47769439220428467,0.19346560537815094,0.0294952392578125,-0.74456787109375,-0.6696014404296875
5.32,-0.19266851246356964,-0.4089853763580322,0.07996700704097748,-0.032501220703125,-0.72479248046875,-0.7118377685546875
5.34,0.02954830415546894,-0.23616325855255127,0.01737792417407036,-0.0374755859375,-0.7508697509765625,-0.7555389404296875
5.36,0.18370485305786133,-0.07974116504192352,-0.035649873316287994,-0.0145721435546875,-0.744537353515625,-0.6898345947265625
5.38,0.22496041655540466,0.10770755261182785,-0.0794556736946106,-0.0145721435546875,-0.744537353515625,-0.6898345947265625
5.4,0.16538949310779572,0.13065335154533386,-0.08563287556171417,0.0021820068359375,-0.77825927734375,-0.651458740234375
5.42,0.0366501547396183,0.10108720511198044,-0.06287403404712677,0.0403900146484375,-0.7629852294921875,-0.5982208251953125
5.44,-0.09626182168722153,0.01563728228211403,-0.03483095020055771,0.0585784912109375,-0.7724761962890625,-0.5667724609375
5.46,-0.1843607872724533,-0.017621338367462158,-0.003178216516971588,0.0899200439453125,-0.778472900390625,-0.564788818359375
5.48,-0.23308438062667847,-0.06702324002981186,0.004771319217979908,0.106903076171875,-0.781097412109375,-0.5722198486328125
5.5,-0.287174791097641,-0.13323289155960083,0.0019590212032198906,0.0919647216796875,-0.7853851318359375,-0.5952911376953125
5.52,-0.21521644294261932,-0.053634464740753174,-0.003519633784890175,0.04473876953125,-0.7546539306640625,-0.6685791015625
5.54,-0.22671329975128174,0.010177802294492722,-0.08673596382141113,0.04473876953125,-0.7546539306640625,-0.6685791015625
5.56,-0.1694236546754837,0.024586569517850876,-0.09190648794174194,0.01495361328125,-0.744476318359375,-0.6634063720703125
5.58,-0.07594190537929535,0.05398014560341835,-0.10397566854953766,0.046722412109375,-0.7540130615234375,-0.6906585693359375
5.6,-0.01896543614566326,0.13460521399974823,-0.14999055862426758,0.04779052734375,-0.754852294921875,-0.7003021240234375
5.62,-0.10036708414554596,0.14808666706085205,-0.2425452619791031,0.0289154052734375,-0.745849609375,-0.6670074462890625
5.64,-0.2932393252849579,0.1691855639219284,-0.28871941566467285,0.0601654052734375,-0.737091064453125,-0.5754241943359375
5.66,-0.26131734251976013,0.10166937112808228,-0.14803260564804077,0.0601654052734375,-0.737091064453125,-0.5754241943359375
5.68,-0.05994802340865135,-0.022705579176545143,-0.002930009737610817,0.149993896484375,-0.76898193359375,-0.7836761474609375
5.7,0.20930369198322296,0.013310212641954422,-0.07933077216148376,0.149993896484375,-0.76898193359375,-0.7836761474609375
5.72,0.3797380030155182,0.05277452990412712,-0.14780624210834503,0.0567474365234375,-0.769927978515625,-0.791961669921875
5.74,0.36197152733802795,0.051363322883844376,-0.13952220976352692,0.0632781982421875,-0.7471923828125,-0.7107086181640625
5.76,0.19945451617240906,-0.012181032449007034,-0.09588444977998734,0.0989227294921875,-0.761810302734375,-0.618927001953125
5.78,0.046537939459085464,-0.03916151821613312,-0.03225594013929367,0.122772216796875,-0.7630462646484375,-0.55596923828125
5.8,-0.04681677371263504,-0.014450311660766602,0.013492905534803867,0.1446380615234375,-0.7764739990234375,-0.56256103515625
5.82,-0.10149599611759186,0.015386679209768772,0.027649737894535065,0.1364593505859375,-0.7701568603515625,-0.582427978515625
5.84,-0.08937674760818481,-0.01230327133089304,0.03412467986345291,0.1124267578125,-0.7657012939453125,-0.614044189453125
5.86,-0.10210879147052765,-0.00529622845351696,0.0233527272939682,0.0921478271484375,-0.7632293701171875,-0.64599609375
5.88,-0.1282477229833603,0.013637781143188477,-0.02882951684296131,0.066162109375,-0.7629547119140625,-0.63409423828125
5.9,-0.1358228176832199,0.0016104135429486632,-0.05680762231349945,0.0298309326171875,-0.750762939453125,-0.6245269775390625
5.92,-0.10207709670066833,-0.028499284759163857,-0.012118714861571789,0.048980712890625,-0.7548370361328125,-0.642578125
5.94,-0.0336274690926075,0.038059502840042114,0.10016841441392899,0.091033935546875,-0.7667083740234375,-0.683563232421875
5.96,0.05826357379555702,0.34348225593566895,0.21330802142620087,0.0991058349609375,-0.7366485595703125,-0.705902099609375
5.98,0.2433260977268219,0.517042338848114,0.1366441249847412,0.0654296875,-0.70098876953125,-0.7159881591796875
6,0.44883719086647034,0.525928258895874,0.06414196640253067,-0.001007080078125,-0.716705322265625,-0.74090576171875
6.02,0.6226617097854614,0.4656848609447479,0.003177950158715248,0.0595550537109375,-0.7470550537109375,-0.743438720703125
6.04,0.6455222964286804,0.4513078033924103,-0.03362027928233147,0.164764404296875,-0.7623138427734375,-0.6458587646484375
6.06,0.5656194686889648,0.4075227677822113,-0.055639028549194336,0.164764404296875,-0.7623138427734375,-0.6458587646484375
6.08,0.3921984136104584,0.26555630564689636,-0.10993023216724396,0.179168701171875,-0.7657012939453125,-0.576385498046875
6.1,0.18733687698841095,-0.007954062893986702,-0.1445356160402298,0.1547698974609375,-0.8058624267578125,-0.5252685546875
6.12,-0.07705297321081161,-0.3043942451477051,-0.13137267529964447,0.1726226806640625,-0.8153533935546875,-0.484832763671875
6.14,-0.3814312517642975,-0.5038463473320007,-0.11210417002439499,0.1823883056640625,-0.833526611328125,-0.4457855224609375
6.16,-0.6424252986907959,-0.5903415679931641,-0.14328604936599731,0.158966064453125,-0.8397674560546875,-0.4333343505859375
6.18,-0.8019760847091675,-0.598634660243988,-0.15107765793800354,0.0765228271484375,-0.7947540283203125,-0.55059814453125
6.2,-0.9581376910209656,-0.582646369934082,-0.19064505398273468,0.0765228271484375,-0.7947540283203125,-0.55059814453125
6.22,-1.0492007732391357,-0.6035447120666504,-0.13557034730911255,0.0597381591796875,-0.767822265625,-0.579833984375
6.24,-1.0567313432693481,-0.6182429790496826,-0.1503644734621048,0.1082916259765625,-0.7551727294921875,-0.6266326904296875
6.26,-0.9657524824142456,-0.4552804231643677,-0.14563868939876556,0.1049652099609375,-0.7169647216796875,-0.687469482421875
6.28,-0.5588273406028748,-0.050094593316316605,0.038292527198791504,0.0820770263671875,-0.6206817626953125,-0.7723388671875
6.3,0.12209448218345642,0.2883172929286957,0.1559954583644867,0.096038818359375,-0.5699462890625,-0.919647216796875
6.32,0.5912260413169861,0.43451178073883057,0.18740157783031464,0.052032470703125,-0.782958984375,-0.9762115478515625
6.34,0.6812459230422974,0.32297247648239136,0.16385391354560852,0.0662078857421875,-0.7910614013671875,-0.8635101318359375
6.36,0.4080492854118347,0.1299593299627304,0.11398409307003021,0.0577239990234375,-0.7204742431640625,-0.6882476806640625
6.38,-0.023440876975655556,-0.07109308242797852,0.064229317009449,0.0601043701171875,-0.709381103515625,-0.5374298095703125
6.4,-0.30521664023399353,-0.238572895526886,0.040414270013570786,0.084228515625,-0.719818115234375,-0.491729736328125
6.42,-0.33781903982162476,-0.20434407889842987,-0.011885687708854675,0.112091064453125,-0.7272491455078125,-0.5641937255859375
6.44,-0.26844850182533264,-0.18698027729988098,-0.00401578051969409,0.100494384765625,-0.7291412353515625,-0.6592559814453125
6.46,-0.2629016637802124,-0.133872851729393,0.09304605424404144,0.1238555908203125,-0.7280120849609375,-0.709381103515625
6.48,-0.2875921130180359,-0.09562665969133377,0.15959897637367249,0.13592529296875,-0.7269439697265625,-0.714599609375
6.5,-0.3026440143585205,-0.11762329936027527,0.16305416822433472,0.096527099609375,-0.690521240234375,-0.704437255859375
6.52,-0.29910627007484436,-0.13628114759922028,0.13455887138843536,0.093719482421875,-0.672119140625,-0.7389068603515625
6.54,-0.31229692697525024,-0.08972962200641632,0.12271100282669067,0.0793304443359375,-0.6693267822265625,-0.7205657958984375
6.56,-0.3425253927707672,-0.13888944685459137,0.19014650583267212,0.0756988525390625,-0.70758056640625,-0.72149658203125
6.58,-0.4366060793399811,-0.1643705666065216,0.18454721570014954,0.103607177734375,-0.6902618408203125,-0.6832122802734375
6.6,-0.5119495987892151,-0.1798344850540161,0.180067777633667,0.0815887451171875,-0.6891632080078125,-0.6684722900390625
6.62,-0.5093061327934265,-0.2583601772785187,0.2095170021057129,0.0589447021484375,-0.6850738525390625,-0.73175048828125
6.64,-0.5460612177848816,-0.2557334899902344,0.22605177760124207,0.0589447021484375,-0.6850738525390625,-0.73175048828125
6.66,-0.6391578316688538,-0.22930243611335754,0.22250764071941376,0.0456085205078125,-0.66943359375,-0.7099609375
6.68,-0.680894136428833,-0.2472207099199295,0.217595174908638,0.0376739501953125,-0.6635589599609375,-0.7098388671875
6.7,-0.5992117524147034,-0.2641805112361908,0.23707540333271027,0.0227813720703125,-0.6411590576171875,-0.7608795166015625
6.72,-0.4829149842262268,-0.252841055393219,0.29761651158332825,0.02996826171875,-0.6288909912109375,-0.8246002197265625
6.74,-0.39691218733787537,-0.13285870850086212,0.3561437427997589,0.0361175537109375,-0.6202392578125,-0.8539581298828125
6.76,-0.3312106728553772,0.013685185462236404,0.3398273289203644,0.029144287109375,-0.6167449951171875,-0.8227691650390625
6.78,-0.21289841830730438,0.09994470328092575,0.2647501826286316,-0.0157928466796875,-0.611328125,-0.81597900390625
6.8,-0.020383035764098167,0.18949855864048004,0.20006997883319855,-0.0327301025390625,-0.5989990234375,-0.8560028076171875
6.82,0.1977170705795288,0.23361621797084808,0.13090422749519348,-0.05279541015625,-0.61273193359375,-0.8621826171875
6.84,0.34756356477737427,0.1449103206396103,0.011493404395878315,-0.040130615234375,-0.6197509765625,-0.8719329833984375
6.86,0.43967777490615845,0.1370212286710739,-0.05944628268480301,-0.05133056640625,-0.6396026611328125,-0.8380279541015625
6.88,0.5802990794181824,0.19584301114082336,-0.09060340374708176,-0.018585205078125,-0.670928955078125,-0.7982177734375
6.9,0.5436002016067505,0.11516574025154114,-0.16229942440986633,-0.012725830078125,-0.6757659912109375,-0.7951812744140625
6.92,0.4498686194419861,0.09267640858888626,-0.18746177852153778,-0.0328369140625,-0.6270751953125,-0.7045440673828125
6.94,0.33951762318611145,0.009917345829308033,-0.18876858055591583,0.0152130126953125,-0.6684722900390625,-0.716949462890625
6.96,0.2416568398475647,-0.10979174822568893,-0.1852891594171524,0.0602569580078125,-0.656158447265625,-0.6780242919921875
6.98,0.13014735281467438,-0.09858942031860352,-0.10440123826265335,0.056671142578125,-0.66064453125,-0.6971893310546875
7,0.056168463081121445,0.02467738278210163,-0.0054357778280973434,0.047760009765625,-0.6704254150390625,-0.71905517578125
7.02,0.05121072381734848,0.08066049218177795,0.009434248320758343,0.0246124267578125,-0.680633544921875,-0.7320404052734375
7.04,0.013785053975880146,0.05377241596579552,0.02075720950961113,0.0033111572265625,-0.63177490234375,-0.7453460693359375
7.06,-0.012108860537409782,0.040701624006032944,0.03231053426861763,0.011077880859375,-0.6395111083984375,-0.7505340576171875
7.08,0.015594406053423882,0.09518697112798691,0.07833981513977051,0.0366668701171875,-0.65777587890625,-0.75091552734375
7.1,0.06418351083993912,0.13366591930389404,0.09194590151309967,0.045684814453125,-0.6628875732421875,-0.7628173828125
7.12,0.12886850535869598,0.17843419313430786,0.07940854132175446,0.02471923828125,-0.6668853759765625,-0.7801361083984375
7.14,0.18728840351104736,0.18611714243888855,0.09034507721662521,0.0132598876953125,-0.6498565673828125,-0.791412353515625
7.16,0.19375935196876526,0.20410439372062683,0.10355435311794281,0.0078277587890625,-0.63775634765625,-0.797149658203125
7.18,0.2064967155456543,0.21673338115215302,0.1001492366194725,0.0082855224609375,-0.648773193359375,-0.7758026123046875
7.2,0.2794356346130371,0.24717330932617188,0.07175540924072266,0.010345458984375,-0.665252685546875,-0.7639312744140625
7.22,0.2722419202327728,0.19027486443519592,0.045708898454904556,0.016998291015625,-0.6793670654296875,-0.7505035400390625
7.24,0.2487988919019699,0.08185625076293945,-0.0025835325941443443,0.008270263671875,-0.6943359375,-0.710723876953125
7.26,0.251539021730423,-0.016262326389551163,-0.09542106091976166,0.019439697265625,-0.703399658203125,-0.6917266845703125
7.28,0.2203398197889328,-0.09910128265619278,-0.1169910654425621,0.01715087890625,-0.716461181640625,-0.699615478515625
7.3,0.20041406154632568,-0.0562044158577919,-0.11781478673219681,0.0420379638671875,-0.7173309326171875,-0.6971588134765625
7.32,0.11325252056121826,0.004436027258634567,-0.08076169341802597,0.0438690185546875,-0.71588134765625,-0.6820831298828125
7.34,-0.02983885630965233,-0.05215268209576607,-0.06034083664417267,0.05755615234375,-0.7041168212890625,-0.664398193359375
7.36,-0.04938512668013573,-0.04887726157903671,-0.03724324330687523,0.0368499755859375,-0.6902313232421875,-0.6441497802734375
7.38,-0.028691831976175308,-0.03427568078041077,-0.027723239734768867,0.0531158447265625,-0.7005767822265625,-0.720611572265625
7.4,-0.0386991910636425,-0.03299470245838165,-0.03700622171163559,0.0531158447265625,-0.7005767822265625,-0.720611572265625
7.42,-0.0929965227842331,-0.041379664093256,-0.035838689655065536,0.043487548828125,-0.6943359375,-0.7131500244140625
7.44,-0.16846837103366852,-0.073121078312397,-0.02948598749935627,0.0499420166015625,-0.6865692138671875,-0.697784423828125
7.46,-0.19749149680137634,-0.057908039540052414,-0.04211496189236641,0.0526580810546875,-0.6880340576171875,-0.6955413818359375
7.48,-0.1602269560098648,-0.06858145445585251,-0.05820045620203018,0.037109375,-0.6910552978515625,-0.704620361328125
7.5,-0.14169082045555115,-0.10075031220912933,-0.0668376162648201,0.0299835205078125,-0.69671630859375,-0.732025146484375
7.52,-0.13721723854541779,-0.133835569024086,-0.07624523341655731,0.0299835205078125,-0.69671630859375,-0.732025146484375
7.54,-0.17401227355003357,-0.16107650101184845,-0.03539127856492996,0.027618408203125,-0.6826171875,-0.731842041015625
7.56,-0.17557156085968018,-0.12536218762397766,-0.013169597834348679,0.0576019287109375,-0.6772613525390625,-0.7322540283203125
7.58,-0.15694567561149597,-0.04703328758478165,-0.017163008451461792,0.0456390380859375,-0.6736297607421875,-0.7443389892578125
7.6,-0.2034497857093811,-0.025412149727344513,-0.013066267594695091,0.0101470947265625,-0.662261962890625,-0.7208099365234375
7.62,-0.1956360787153244,-0.07325397431850433,-0.023904001340270042,0.0313873291015625,-0.6712188720703125,-0.7498321533203125
7.64,-0.16928276419639587,-0.1235661432147026,-0.0367090106010437,0.0240325927734375,-0.6739501953125,-0.75103759765625
7.66,-0.13564251363277435,-0.0933627039194107,-0.040956221520900726,0.01910400390625,-0.6681060791015625,-0.7484893798828125
7.68,-0.11800919473171234,-0.07828974723815918,-0.020653346553444862,0.027679443359375,-0.662017822265625,-0.7583770751953125
7.7,-0.1403866708278656,-0.0674421563744545,0.010124805383384228,0.0408782958984375,-0.65673828125,-0.7661285400390625
7.72,-0.2804705500602722,-0.14458860456943512,0.07920187711715698,0.038970947265625,-0.6622161865234375,-0.7477874755859375
7.74,-0.41474419832229614,-0.15834090113639832,0.06753963232040405,0.0395965576171875,-0.6296539306640625,-0.680450439453125
7.76,-0.3632762134075165,-0.20900355279445648,0.06316564977169037,0.0270843505859375,-0.6711578369140625,-0.78228759765625
7.78,-0.20681069791316986,-0.14660488069057465,0.039570845663547516,0.0270843505859375,-0.6711578369140625,-0.78228759765625
7.8,-0.0633065328001976,-0.02731524407863617,-0.00726377172395587,0.0103759765625,-0.6690673828125,-0.8199920654296875
7.82,-0.02930941991508007,0.014011423103511333,-0.03734657168388367,-0.0061798095703125,-0.6607666015625,-0.803619384765625
7.84,-0.06877932697534561,-0.036857616156339645,-0.0054240599274635315,-0.02215576171875,-0.6421966552734375,-0.7549285888671875
7.86,-0.021804897114634514,-0.040341563522815704,-0.030950725078582764,0.0189056396484375,-0.6335601806640625,-0.7978973388671875
7.88,0.07745563983917236,0.03996099904179573,-0.014315555803477764,0.0353851318359375,-0.656005859375,-0.8353424072265625
7.9,0.03586425632238388,-0.006177468225359917,0.03419072553515434,0.0353851318359375,-0.656005859375,-0.8353424072265625
7.92,0.12590280175209045,0.18545907735824585,-0.008565258234739304,0.0234527587890625,-0.6003875732421875,-0.7320709228515625
7.94,0.2031421959400177,0.2090163379907608,0.03617451712489128,0.0005035400390625,-0.67156982421875,-0.813751220703125
7.96,0.22426772117614746,0.13395993411540985,0.037221137434244156,0.0287017822265625,-0.6111602783203125,-0.7819366455078125
7.98,0.15810121595859528,0.15499943494796753,0.059002332389354706,0.045684814453125,-0.6638946533203125,-0.80670166015625
8,0.17328603565692902,0.1821461021900177,-0.00634950865060091,0.0301971435546875,-0.6567230224609375,-0.703033447265625
8.02,0.2332361787557602,0.157075896859169,-0.039625439792871475,-0.0203399658203125,-0.6924285888671875,-0.7394561767578125
8.04,0.23503515124320984,0.14052781462669373,-0.08416520804166794,-0.01153564453125,-0.6611480712890625,-0.76837158203125
8.06,0.18628917634487152,0.11980576068162918,-0.0076030585914850235,-0.0146484375,-0.6551055908203125,-0.730987548828125
8.08,0.21786761283874512,0.20532839000225067,-0.021388646215200424,0.0591583251953125,-0.670654296875,-0.7627716064453125
8.1,0.21005842089653015,0.2170497626066208,-0.0204584039747715,0.03204345703125,-0.67242431640625,-0.731597900390625
8.12,0.14703871309757233,0.1425749957561493,-0.04669293761253357,0.0483856201171875,-0.6731414794921875,-0.7153778076171875
8.14,0.06387192010879517,0.02161315083503723,-0.03544853627681732,0.0483856201171875,-0.6731414794921875,-0.7153778076171875
8.16,-0.005671733990311623,-0.0466761589050293,-0.05073188617825508,0.0610809326171875,-0.671722412109375,-0.7158355712890625
8.18,0.013647102750837803,-0.03797827288508415,-0.06582668423652649,0.0471954345703125,-0.6586456298828125,-0.72412109375
8.2,0.07380444556474686,0.005615008994936943,-0.07633498311042786,0.036651611328125,-0.6609954833984375,-0.749664306640625
8.22,0.12187530845403671,0.024056067690253258,-0.07152318209409714,0.03057861328125,-0.6748046875,-0.7627410888671875
8.24,0.11545415967702866,0.020780378952622414,-0.0692022368311882,0.0395660400390625,-0.6899566650390625,-0.7539520263671875
8.26,0.08912135660648346,-0.005178516730666161,-0.10332825034856796,0.029510498046875,-0.684112548828125,-0.7274627685546875
8.28,0.06373476982116699,-0.008142348378896713,-0.08642437309026718,0.0205841064453125,-0.680328369140625,-0.7119598388671875
8.3,0.04327583312988281,-0.01768844947218895,-0.06895536184310913,0.05255126953125,-0.6923370361328125,-0.70538330078125
8.32,0.004444815684109926,-0.00628932099789381,-0.04951828345656395,0.057037353515625,-0.6927642822265625,-0.7076263427734375
8.34,-0.01738964207470417,0.008852081373333931,-0.0328570157289505,0.0568389892578125,-0.6928863525390625,-0.704681396484375
8.36,-0.048715606331825256,0.025076057761907578,-0.021806228905916214,0.0518951416015625,-0.68707275390625,-0.7161102294921875
8.38,-0.07340870052576065,0.031143538653850555,-0.01738831214606762,0.0528106689453125,-0.67242431640625,-0.724639892578125
8.4,-0.09754946082830429,0.03265008702874184,-0.011943744495511055,0.0528106689453125,-0.67242431640625,-0.724639892578125
8.42,-0.11528531461954117,0.021382786333560944,-0.003555319970473647,0.0528564453125,-0.6647796630859375,-0.73236083984375
8.44,-0.1055554524064064,0.01540345698595047,-0.0054552191868424416,0.0537261962890625,-0.6640625,-0.741943359375
8.46,-0.0920790582895279,-0.004263720940798521,-0.01236239355057478,0.051055908203125,-0.6624755859375,-0.7516937255859375
8.48,-0.09181487560272217,-0.036013394594192505,-0.027362115681171417,0.0496368408203125,-0.6738739013671875,-0.7461395263671875
8.5,-0.06644560396671295,-0.01908101700246334,-0.020073309540748596,0.0496368408203125,-0.6738739013671875,-0.7461395263671875
8.52,-0.04614725336432457,-0.00965795386582613,-0.02165336348116398,0.05206298828125,-0.6772918701171875,-0.7475738525390625
8.54,-0.052742041647434235,-0.006311958190053701,-0.01613662578165531,0.047760009765625,-0.675628662109375,-0.7467041015625
8.56,-0.08596417307853699,-0.0079735042527318,-0.00321922916918993,0.0513916015625,-0.6704254150390625,-0.7379913330078125
8.58,-0.10431468486785889,-0.023186013102531433,-0.00821771565824747,0.0595550537109375,-0.666900634765625,-0.727020263671875
8.6,-0.09448415786027908,-0.01498214527964592,0.007892544381320477,0.0505218505859375,-0.6695098876953125,-0.736297607421875
8.62,-0.08503712713718414,-0.00977246928960085,0.014161891303956509,0.05889892578125,-0.667572021484375,-0.74713134765625
8.64,-0.08957862108945847,-0.018749186769127846,0.006098638754338026,0.05902099609375,-0.6654205322265625,-0.748779296875
8.66,-0.10595226287841797,-0.01878434047102928,0.009284578263759613,0.060089111328125,-0.6650848388671875,-0.7366485595703125
8.68,-0.10851475596427917,-0.028689434751868248,0.007111439015716314,0.060089111328125,-0.6650848388671875,-0.7366485595703125
8.7,-0.09310837090015411,-0.02737809531390667,0.018201639875769615,0.0504608154296875,-0.658172607421875,-0.75189208984375
8.72,-0.04747324436903,-0.012501411139965057,0.01696673221886158,0.0473175048828125,-0.6537322998046875,-0.771759033203125
8.74,-0.02383768931031227,-0.0035052525345236063,0.0012522183824330568,0.03973388671875,-0.6566009521484375,-0.775848388671875
8.76,-0.032216258347034454,-0.01067741122096777,-0.011854262091219425,0.0347900390625,-0.651885986328125,-0.767578125
8.78,-0.055075503885746,-0.03837854787707329,-0.017483917996287346,0.03887939453125,-0.6538848876953125,-0.7501983642578125
8.8,-0.06053471565246582,-0.05132630467414856,-0.014329404570162296,0.0497283935546875,-0.655517578125,-0.751617431640625
8.82,-0.047567520290613174,-0.04063264653086662,-0.01017114520072937,0.0497283935546875,-0.655517578125,-0.751617431640625
8.84,-0.0344139002263546,-0.021398233249783516,-0.013370666652917862,0.0465850830078125,-0.6597747802734375,-0.75872802734375
8.86,-0.04409315809607506,-0.015460449270904064,-0.013741911388933659,0.0462493896484375,-0.649505615234375,-0.7563323974609375
8.88,-0.049016546458005905,-0.016443688422441483,-0.011949869804084301,0.0462493896484375,-0.649505615234375,-0.7563323974609375
8.9,-0.031742747873067856,-0.021033646538853645,-0.0030154972337186337,0.0479888916015625,-0.6522216796875,-0.7592620849609375
8.92,0.0041247038170695305,-0.0005877596559002995,0.0044197821989655495,0.0470428466796875,-0.6513214111328125,-0.7736358642578125
8.94,0.011680624447762966,0.026816166937351227,-0.00043649208964779973,0.0470428466796875,-0.6513214111328125,-0.7736358642578125
8.96,-0.002657035831362009,0.028790635988116264,-0.00023995080846361816,0.04541015625,-0.6482696533203125,-0.7627716064453125
8.98,-0.005114600993692875,0.01537709217518568,0.002282062778249383,0.045867919921875,-0.6450347900390625,-0.757354736328125
9,0.007394266780465841,0.01104386243969202,0.0013664679136127234,0.05126953125,-0.65020751953125,-0.7578125
9.02,0.008016115054488182,0.008903746493160725,-0.00024767397553659976,0.047271728515625,-0.6540679931640625,-0.7604827880859375
9.04,-0.0009337042574770749,0.016886038705706596,0.00017976337403524667,0.046478271484375,-0.6519012451171875,-0.759002685546875
9.06,-0.013702229596674442,0.016269251704216003,0.002683134749531746,0.0421600341796875,-0.65069580078125,-0.7534942626953125
9.08,-0.019538814201951027,0.02171887829899788,0.004508997779339552,0.045806884765625,-0.6497955322265625,-0.756683349609375
9.1,-0.006592921447008848,0.015448198653757572,0.006342850625514984,0.0476531982421875,-0.650665283203125,-0.754669189453125
9.12,0.002983539365231991,0.024443024769425392,-0.0030282805673778057,0.046661376953125,-0.6537322998046875,-0.762298583984375
9.14,-0.0014980280539020896,0.03717613220214844,-0.002097505610436201,0.041259765625,-0.65423583984375,-0.759552001953125
9.16,-0.04248221218585968,0.027953604236245155,0.00755059439688921,0.0477447509765625,-0.6544952392578125,-0.7458648681640625
9.18,-0.05528749153017998,0.02359800413250923,0.021316207945346832,0.05279541015625,-0.65240478515625,-0.74114990234375
9.2,-0.04349873960018158,0.016695089638233185,0.015864450484514236,0.0513153076171875,-0.6486053466796875,-0.7541961669921875
9.22,-0.027274232357740402,0.016353938728570938,0.0033987262286245823,0.0410614013671875,-0.6503753662109375,-0.7651519775390625
9.24,-0.04741252213716507,-0.015123559162020683,-0.0007360977469943464,0.03778076171875,-0.65032958984375,-0.7621307373046875
9.26,-0.07897497713565826,-0.047871917486190796,0.005840045865625143,0.043731689453125,-0.64990234375,-0.754425048828125
9.28,-0.08813305199146271,-0.039439551532268524,0.014634602703154087,0.0524749755859375,-0.6470489501953125,-0.7497406005859375
9.3,-0.07627080380916595,-0.013115002773702145,0.011817244812846184,0.0541229248046875,-0.6463623046875,-0.7569122314453125
9.32,-0.04514084756374359,0.004239752423018217,0.014159228652715683,0.044219970703125,-0.637298583984375,-0.770721435546875
9.34,-0.024513332173228264,-0.0004964132094755769,0.01702159456908703,0.0450286865234375,-0.6414794921875,-0.7816619873046875
9.36,-0.015894010663032532,-0.014222878031432629,0.0032466596458107233,0.0452117919921875,-0.6425323486328125,-0.780975341796875
9.38,-0.02274952083826065,-0.0252225324511528,-0.0018461032304912806,0.04248046875,-0.64202880859375,-0.7700347900390625
9.4,-0.03626319766044617,-0.03310602158308029,-0.0030064424499869347,0.0405120849609375,-0.6393890380859375,-0.763702392578125
9.42,-0.02997654117643833,-0.009700298309326172,0.0006937534781172872,0.049041748046875,-0.6437835693359375,-0.7608489990234375
9.44,-0.023980166763067245,0.011147193610668182,0.00315957423299551,0.0450592041015625,-0.6446075439453125,-0.7655181884765625
9.46,-0.01854092814028263,0.0283496156334877,0.0070435283705592155,0.0433197021484375,-0.6431427001953125,-0.7664794921875
9.48,-0.016262060031294823,0.0264156274497509,0.014515559189021587,0.047576904296875,-0.6412353515625,-0.7679443359375
9.5,-0.01131097786128521,0.03593802824616432,0.020617926493287086,0.05047607421875,-0.6461944580078125,-0.7670440673828125
9.52,0.000023169501218944788,0.0317763052880764,0.005012601613998413,0.0414886474609375,-0.6423187255859375,-0.765838623046875
9.54,0.004930043593049049,0.022406239062547684,0.0014293185668066144,0.0344390869140625,-0.63726806640625,-0.7720184326171875
9.56,0.005432049743831158,0.021562283858656883,-0.0023254721891134977,0.04296875,-0.6391448974609375,-0.7743682861328125
9.58,0.014141119085252285,0.02375885844230652,0.0010396981379017234,0.0410003662109375,-0.63726806640625,-0.7710723876953125
9.6,0.03247405216097832,0.032814137637615204,-0.0007398261222988367,0.0447845458984375,-0.6368408203125,-0.7745208740234375
9.62,0.04385240748524666,0.03913488611578941,-0.006009955424815416,0.0440521240234375,-0.63604736328125,-0.7803955078125
9.64,0.03362826630473137,0.029292374849319458,-0.004285026341676712,0.049346923828125,-0.64373779296875,-0.7583770751953125
9.66,0.01429212000221014,0.015238340944051743,0.0007041397620923817,0.049346923828125,-0.64373779296875,-0.7583770751953125
9.68,-0.00043809000635519624,0.015241270884871483,-0.005598230753093958,0.045074462890625,-0.643768310546875,-0.7603759765625
9.7,0.010666492395102978,0.028899291530251503,-0.001002680161036551,0.045074462890625,-0.643768310546875,-0.7603759765625
9.72,0.019391806796193123,0.019417373463511467,0.004890629090368748,0.0485687255859375,-0.6446380615234375,-0.7705535888671875
9.74,0.006682137493044138,0.00606375141069293,0.0014357101172208786,0.0485382080078125,-0.6418304443359375,-0.7698516845703125
9.76,-0.012462262064218521,0.007903196848928928,0.0028826056513935328,0.047210693359375,-0.643218994140625,-0.7592926025390625
9.78,-0.018508702516555786,-0.0004852279380429536,-0.0007395598222501576,0.0436553955078125,-0.6410980224609375,-0.755615234375
9.8,0.0019259981345385313,0.00015712650201749057,-0.0015643407823517919,0.046051025390625,-0.6414337158203125,-0.7642059326171875
9.82,0.0202738456428051,0.005967611446976662,-0.004021905828267336,0.0450592041015625,-0.641998291015625,-0.7751312255859375
9.84,0.005676794331520796,0.00395825644955039,-0.0025837989524006844,0.047637939453125,-0.6442108154296875,-0.772369384765625
9.86,-0.02256176806986332,0.0023907197173684835,0.0005081311101093888,0.0484771728515625,-0.6423797607421875,-0.7580108642578125
9.88,-0.027587952092289925,-0.002528671408072114,0.007444334216415882,0.04852294921875,-0.6429595947265625,-0.7524871826171875
9.9,-0.02093244530260563,0.012080897577106953,0.006037652492523193,0.049774169921875,-0.6418609619140625,-0.7640380859375
9.92,-0.016513196751475334,0.014508634805679321,0.005352421198040247,0.04718017578125,-0.642333984375,-0.768035888671875
9.94,-0.008874984458088875,0.017038904130458832,0.00018668759730644524,0.0469970703125,-0.640472412109375,-0.7706756591796875
9.96,0.0020003002136945724,0.014630341902375221,-0.00041252365917898715,0.0441741943359375,-0.639892578125,-0.771759033203125
9.98,0.008194812573492527,0.007486944552510977,0.004195810295641422,0.04852294921875,-0.640167236328125,-0.7705535888671875
10,-0.008315986953675747,0.01347666047513485,0.009987386874854565,0.052001953125,-0.6427459716796875,-0.768310546875
10.02,-0.02274898812174797,0.0012695288751274347,0.005623531062155962,0.04705810546875,-0.6372528076171875,-0.7617034912109375
10.04,0.01774410903453827,0.04742557182908058,0.0006101301987655461,0.04705810546875,-0.6372528076171875,-0.7617034912109375
10.06,0.033615484833717346,0.022881614044308662,0.02167174033820629,0.04913330078125,-0.6392822265625,-0.77032470703125
10.08,-0.010724549181759357,0.030733412131667137,0.008874984458088875,0.0558624267578125,-0.6458587646484375,-0.766357421875
10.1,-0.02448483742773533,-0.01142948865890503,0.005618737079203129,0.0420684814453125,-0.6496124267578125,-0.757354736328125
10.12,-0.0444825142621994,-0.03774125501513481,-0.00971414614468813,0.040191650390625,-0.6428985595703125,-0.7820892333984375
10.14,0.016682041808962822,-0.014884141273796558,-0.012552809901535511,0.040191650390625,-0.6428985595703125,-0.7820892333984375
10.16,0.08267170935869217,0.011744540184736252,-0.0003741741238627583,0.046417236328125,-0.638702392578125,-0.7948760986328125
