timestamp,gyro_x,gyro_y,gyro_z,acc_x,acc_y,acc_z
0,-0.034078340977430344,-0.15859337151050568,0.09013389050960541,0,0,0
0.02,0.02636502869427204,0.022335398942232132,0.06144951283931732,0.143310546875,-0.41278076171875,-0.8702545166015625
0.04,0.13459163904190063,0.0931328758597374,0.05096624419093132,0.098419189453125,-0.40093994140625,-0.9857177734375
0.06,0.11639399081468582,0.1213996633887291,0.0746566578745842,0.102020263671875,-0.3918609619140625,-0.991180419921875
0.08,0.1252567172050476,0.03687332943081856,0.06455902010202408,0.1262664794921875,-0.3943634033203125,-0.9434051513671875
0.1,0.06013044714927673,-0.06290040165185928,0.09098583459854126,0.1373138427734375,-0.3866424560546875,-0.9233856201171875
0.12,0.14267326891422272,0.05612824857234955,0.1650824248790741,0.1448822021484375,-0.3978729248046875,-0.919769287109375
0.14,0.2515970766544342,0.1808270364999771,0.157338485121727,0.14215087890625,-0.372161865234375,-1.023651123046875
0.16,0.3103006184101105,0.270774245262146,0.267785906791687,0.11676025390625,-0.36865234375,-1.0228424072265625
0.18,0.2343861311674118,0.21059772372245789,0.32139506936073303,0.1573028564453125,-0.35516357421875,-0.998199462890625
0.2,0.2598166763782501,-0.006050968077033758,0.2938776910305023,0.14691162109375,-0.393218994140625,-0.9175872802734375
0.22,0.44675111770629883,-0.05445125699043274,0.17831142246723175,0.118927001953125,-0.444244384765625,-0.9521331787109375
0.24,0.8070755004882812,0.0692986473441124,0.01768818311393261,0.0474395751953125,-0.4620208740234375,-1.0366363525390625
0.26,1.2424213886260986,0.4318121373653412,0.024140490218997,0.0266876220703125,-0.4364013671875,-1.105438232421875
0.28,1.2811356782913208,0.811123251914978,-0.007925833575427532,0.09136962890625,-0.3968963623046875,-1.2044525146484375
0.3,0.9904008507728577,0.3946290612220764,-0.22930695116519928,0.04296875,-0.4117431640625,-1.0965423583984375
0.32,0.6180693507194519,-0.9196861982345581,-0.4288847744464874,-0.0276031494140625,-0.528564453125,-0.8994293212890625
0.34,0.5244933366775513,-1.5163758993148804,-0.8586885929107666,-0.0557403564453125,-0.483642578125,-0.842315673828125
0.36,-0.06232729181647301,-2.1933698654174805,-1.1955143213272095,-0.109527587890625,-0.6129150390625,-0.789306640625
0.38,-1.1037969589233398,-2.780611038208008,-1.2875949144363403,-0.0340576171875,-0.3630218505859375,-0.48370361328125
0.4,-2.099104881286621,-2.340578556060791,-1.4020328521728516,0.0668792724609375,-0.443756103515625,-0.154327392578125
0.42,-3.140692710876465,-0.436910480260849,-1.7887520790100098,0.1137542724609375,-0.587066650390625,-0.120269775390625
0.44,-2.5227713584899902,1.663741946220398,-1.9701719284057617,0.08917236328125,-0.420196533203125,-0.1340789794921875
0.46,-0.33550289273262024,3.2957375049591064,-1.1354504823684692,0.2169952392578125,-0.5280303955078125,-0.9727325439453125
0.48,-0.10382413119077682,0.4793791174888611,0.13651762902736664,0.453643798828125,-0.277099609375,-1.429229736328125
0.5,-0.3017500042915344,-1.1771979331970215,0.8975891470909119,0.6718597412109375,-0.0657196044921875,-1.1761932373046875
0.52,-0.6367127895355225,-2.446465253829956,0.9737544655799866,0.448974609375,-0.1714324951171875,-0.767791748046875
0.54,-0.6015231013298035,-1.9800043106079102,0.19711999595165253,0.1091461181640625,-0.295928955078125,-0.686553955078125
0.56,-0.4503466486930847,-1.363815426826477,-0.6346118450164795,-0.160980224609375,-0.34417724609375,-0.993316650390625
0.58,0.37164705991744995,-0.8480759263038635,-0.8199907541275024,-0.25140380859375,-0.2002410888671875,-1.3288421630859375
0.6,1.4025710821151733,-1.6095945835113525,-0.13575570285320282,-0.25140380859375,-0.2002410888671875,-1.3288421630859375
0.62,2.199979543685913,-2.2294020652770996,0.2867164611816406,0.0109100341796875,-0.1311492919921875,-1.2129058837890625
0.64,2.6018059253692627,-2.4419376850128174,0.24552586674690247,0.0475311279296875,-0.16259765625,-1.241302490234375
0.66,2.5202279090881348,-2.4178600311279297,-0.11193771660327911,-0.1376800537109375,-0.3033905029296875,-0.9764251708984375
0.68,1.3391468524932861,-1.0705734491348267,-0.625461995601654,-0.2258758544921875,-0.451629638671875,-0.8940277099609375
0.7,-0.11707096546888351,0.0686672106385231,-0.8542875051498413,-0.30322265625,-0.633056640625,-0.785064697265625
0.72,-1.012439250946045,0.294688880443573,-0.880912721157074,-0.287078857421875,-0.5489044189453125,-0.5369720458984375
0.74,-0.6368851065635681,-0.10671499371528625,-0.8527135252952576,-0.3127288818359375,-0.514312744140625,-0.5742645263671875
0.76,0.28509485721588135,-1.3238518238067627,-0.7338182926177979,-0.201751708984375,-0.482086181640625,-0.8877410888671875
0.78,0.8717905879020691,-2.2005555629730225,-0.6884319186210632,-0.1376190185546875,-0.248748779296875,-0.8888397216796875
0.8,0.4587249755859375,-2.0629637241363525,-0.7068149447441101,-0.173553466796875,-0.4437255859375,-0.932037353515625
0.82,-0.08768777549266815,-1.2048760652542114,-0.6048502326011658,-0.220001220703125,-0.6430511474609375,-0.88189697265625
0.84,-0.70279461145401,-0.47711730003356934,-0.40254291892051697,-0.37188720703125,-0.4389190673828125,-0.7536163330078125
0.86,-1.1537806987762451,-0.47081226110458374,-0.15838457643985748,-0.33050537109375,-0.3945770263671875,-0.6631622314453125
0.88,-0.9872316718101501,-0.3215884268283844,-0.13349734246730804,-0.2071075439453125,-0.5119476318359375,-0.6955108642578125
0.9,-0.8578763604164124,-0.5688192248344421,-0.1177162453532219,-0.36456298828125,-0.5062103271484375,-0.912445068359375
0.92,-1.2061771154403687,-0.4520617425441742,-0.04772411286830902,-0.4618072509765625,-0.4250640869140625,-0.843414306640625
0.94,-1.8315850496292114,-0.4643881916999817,0.025647839531302452,-0.4090118408203125,-0.4460296630859375,-0.7379608154296875
0.96,-2.0781514644622803,-0.8166442513465881,0.03215048089623451,-0.3846435546875,-0.4503326416015625,-0.6378326416015625
0.98,-2.179933786392212,-0.8321619629859924,-0.015187208540737629,-0.4382781982421875,-0.38055419921875,-0.8328704833984375
1,-2.2277064323425293,-0.36526957154273987,0.20983073115348816,-0.4779052734375,-0.30548095703125,-0.90167236328125
1.02,-1.998082160949707,0.04929537698626518,0.30159899592399597,-0.4488372802734375,-0.285614013671875,-0.82177734375
1.04,-1.6323108673095703,0.14665254950523376,0.24513252079486847,-0.47576904296875,-0.28466796875,-0.852447509765625
1.06,-1.486853003501892,-0.6774053573608398,0.02863537333905697,-0.46636962890625,-0.24493408203125,-0.891357421875
1.08,-1.543516993522644,-1.3338104486465454,-0.17755188047885895,-0.4327392578125,-0.21954345703125,-0.8822784423828125
1.1,-1.4296077489852905,-0.32649582624435425,0.08918873220682144,-0.4394989013671875,-0.1557159423828125,-0.795074462890625
1.12,-1.2315458059310913,0.7046761512756348,0.2959837317466736,-0.3857269287109375,-0.1927032470703125,-0.7071685791015625
1.14,-1.4235097169876099,0.4645780622959137,0.29979950189590454,-0.459442138671875,-0.2103118896484375,-0.8213348388671875
1.16,-1.7358622550964355,-0.6120229363441467,0.3192770481109619,-0.483856201171875,-0.0771636962890625,-0.8224334716796875
1.18,-2.0086586475372314,-1.296196460723877,0.3527604639530182,-0.3925628662109375,0.0526885986328125,-0.751190185546875
1.2,-1.9549442529678345,-1.449506163597107,0.44214972853660583,-0.3407440185546875,0.149505615234375,-0.6772308349609375
1.22,-1.6482207775115967,-1.008076548576355,1.142140507698059,-0.3943328857421875,0.11767578125,-0.7350616455078125
1.24,-1.3632519245147705,-1.1744931936264038,2.6964359283447266,-0.3190765380859375,0.2471923828125,-0.82659912109375
1.26,-1.085655689239502,-1.848418116569519,3.672434091567993,-0.1551055908203125,0.6329498291015625,-0.745513916015625
1.28,-0.46665000915527344,-1.7252333164215088,2.8188934326171875,-0.2469635009765625,0.5077056884765625,-0.6212310791015625
1.3,-0.055958341807127,-1.4007971286773682,1.7252510786056519,-0.684478759765625,0.1301116943359375,-0.7501068115234375
1.32,0.02983858995139599,-0.5051001906394958,1.1497241258621216,-0.6573638916015625,0.0572357177734375,-0.766937255859375
1.34,-0.3177420198917389,-0.5075857043266296,1.7481313943862915,-0.5497894287109375,0.026611328125,-0.6445465087890625
1.36,-0.6768365502357483,-0.6841740608215332,2.6192831993103027,-0.2778472900390625,0.4081268310546875,-0.56585693359375
1.38,-0.711021900177002,-0.6628799438476562,2.460679292678833,-0.2247161865234375,0.5645599365234375,-0.4969482421875
1.4,0.13177533447742462,-1.7982057332992554,2.0288712978363037,-0.423675537109375,0.28564453125,-0.6580047607421875
1.42,-0.11004234850406647,-2.442458152770996,1.8687877655029297,-0.3971099853515625,0.27239990234375,-0.8836212158203125
1.44,-0.9561270475387573,-1.6886746883392334,1.9783313274383545,-0.405120849609375,0.2867889404296875,-0.3132171630859375
1.46,-1.1361452341079712,-1.7253824472427368,2.218581199645996,-0.5230560302734375,0.194610595703125,-0.400634765625
1.48,-1.0106091499328613,-2.5323286056518555,2.586005926132202,-0.459381103515625,0.369354248046875,-0.4897308349609375
1.5,-1.0192010402679443,-3.2310140132904053,3.1571576595306396,-0.205535888671875,0.53533935546875,-0.4992523193359375
1.52,-1.336319923400879,-3.316755771636963,3.135622262954712,-0.05584716796875,0.61993408203125,-0.416900634765625
1.54,-1.9261014461517334,-3.260697364807129,2.631537675857544,-0.3790283203125,0.4840850830078125,-0.4950714111328125
1.56,-2.3096799850463867,-3.260374069213867,2.720968246459961,-0.6379241943359375,0.485076904296875,-0.3792572021484375
1.58,-2.141800880432129,-2.982585906982422,3.2452962398529053,-0.5216064453125,0.657440185546875,-0.3254852294921875
1.6,-1.1983052492141724,-2.9808835983276367,3.3072476387023926,-0.5721588134765625,1.0119476318359375,-0.548431396484375
1.62,-0.18474668264389038,-3.113337755203247,2.92931866645813,-0.772674560546875,1.3834686279296875,-0.8056182861328125
1.64,-0.1803990751504898,-2.4227466583251953,2.172956943511963,-0.9899444580078125,1.335235595703125,-0.8268280029296875
1.66,-0.4212079644203186,-1.1592841148376465,1.0076184272766113,-1.07745361328125,1.20068359375,-0.599639892578125
1.68,-0.6795929074287415,-0.08390022814273834,0.11235024034976959,-1.3389434814453125,1.1798553466796875,-0.6880340576171875
1.7,-0.7778917551040649,0.7905833125114441,0.09657607227563858,-1.2128448486328125,1.215118408203125,-0.72833251953125
1.72,-0.3270457684993744,1.1833921670913696,0.2430688440799713,-0.7993011474609375,1.2673187255859375,-0.6390533447265625
1.74,-0.23759257793426514,0.8719005584716797,-0.28263434767723083,-0.7759246826171875,1.3028717041015625,-0.679595947265625
1.76,-0.2330590784549713,0.6733896136283875,-0.63465815782547,-0.88531494140625,1.007720947265625,-0.2681121826171875
1.78,-0.15334081649780273,1.0409473180770874,-0.6514880061149597,-0.76580810546875,0.818359375,-0.1625823974609375
1.8,0.565166175365448,1.835666298866272,-0.14613589644432068,-0.6244964599609375,0.85565185546875,-0.1822357177734375
1.82,0.3511494994163513,1.8861196041107178,0.07998830825090408,-0.4853363037109375,1.0187835693359375,-0.6696624755859375
1.84,-0.13215963542461395,2.1054415702819824,-0.28450149297714233,-0.40875244140625,1.003875732421875,-0.335418701171875
1.86,-0.16432742774486542,1.3921884298324585,-0.8438026309013367,-0.4922332763671875,0.59326171875,-0.1609039306640625
1.88,0.6795593500137329,1.7821484804153442,-0.6246870160102844,-0.6283111572265625,0.773040771484375,-0.19989013671875
1.9,1.5587031841278076,1.7048989534378052,-0.07950015366077423,-0.3744964599609375,0.885406494140625,-0.620452880859375
1.92,1.4520177841186523,1.4414273500442505,0.09217839688062668,-0.35711669921875,1.1318359375,-0.68914794921875
1.94,0.9171439409255981,2.359968662261963,0.2239806354045868,-0.476348876953125,0.8237762451171875,-0.4464569091796875
1.96,0.4629173278808594,2.6020641326904297,0.3162567615509033,-0.586578369140625,0.7830657958984375,-0.4612579345703125
1.98,0.800226628780365,2.1612095832824707,0.17986910045146942,-0.54833984375,0.6083984375,-0.4466552734375
2,2.078178882598877,1.068551778793335,0.15896540880203247,-0.4292755126953125,0.665374755859375,-0.5214385986328125
2.02,0.06585544347763062,1.3572545051574707,0.3874792754650116,-0.48614501953125,0.500335693359375,-0.5747528076171875
2.04,-0.25420379638671875,0.4308536648750305,0.15465402603149414,-0.324432373046875,0.060150146484375,0.2163543701171875
2.06,-0.8025928735733032,-0.34234854578971863,-0.23554594814777374,-0.1184539794921875,-0.129486083984375,-0.3679962158203125
2.08,-1.8233635425567627,0.007299724500626326,-0.27561771869659424,-0.2308502197265625,0.2559356689453125,-0.5328521728515625
2.1,-1.7030547857284546,0.7068271636962891,-0.4932858645915985,-0.375152587890625,0.56011962890625,-0.30474853515625
2.12,-1.703320026397705,1.5369116067886353,-1.1749008893966675,-0.64459228515625,1.1121368408203125,-0.2824859619140625
2.14,-1.2500920295715332,1.389238715171814,-2.046811103820801,-0.9332122802734375,1.2369537353515625,-0.0985870361328125
2.16,-1.1688166856765747,0.8875461220741272,-2.1654791831970215,-0.690093994140625,0.7111663818359375,-0.1797332763671875
2.18,-1.7857365608215332,0.8023734092712402,-1.7830829620361328,-0.2971649169921875,1.0392303466796875,-0.2459259033203125
2.2,-1.0141059160232544,-0.06871674954891205,-1.9197484254837036,-0.09539794921875,1.5872955322265625,-0.928375244140625
2.22,-1.4578673839569092,0.22758814692497253,-2.1778793334960938,-0.09539794921875,1.5872955322265625,-0.928375244140625
2.24,-1.7768112421035767,-0.27316176891326904,-2.1456220149993896,-0.4432373046875,0.9661407470703125,-0.5603790283203125
2.26,-2.2779717445373535,-0.5869386196136475,-2.2394230365753174,-0.25946044921875,0.9813690185546875,-0.59423828125
2.28,-2.5949254035949707,-1.6498091220855713,-1.8817232847213745,-0.2047882080078125,0.9004974365234375,-0.4466552734375
2.3,-2.7829360961914062,-1.4332642555236816,-1.4655793905258179,-0.363006591796875,0.9141082763671875,-0.446685791015625
2.32,-3.119590997695923,-1.0179510116577148,-0.22818097472190857,-0.363006591796875,0.9141082763671875,-0.446685791015625
2.34,-3.6960902214050293,-0.5604337453842163,0.5580379962921143,-0.27679443359375,0.7913665771484375,-0.241424560546875
2.36,-2.7586207389831543,-0.22779853641986847,0.317293256521225,-0.5307159423828125,0.9446258544921875,-0.0282135009765625
2.38,-1.8213584423065186,-0.03305062651634216,1.1224066019058228,-0.9066925048828125,1.218353271484375,-0.4722747802734375
2.4,-1.5898784399032593,0.706160306930542,2.3661270141601562,-0.7703857421875,1.091339111328125,-0.27667236328125
2.42,-1.298522710800171,0.004706338047981262,3.309475898742676,-0.4176177978515625,0.953948974609375,0.0096588134765625
2.44,-0.6600618362426758,-0.6728457808494568,3.7491517066955566,-0.2494049072265625,0.878082275390625,0.08319091796875
2.46,-0.513612687587738,-0.19780150055885315,3.2394227981567383,-0.306060791015625,0.9719085693359375,-0.100982666015625
2.48,-0.46559619903564453,0.91962069272995,1.3969472646713257,-0.355133056640625,0.795318603515625,-0.0404510498046875
2.5,-0.3093924820423126,2.0316367149353027,1.3723678588867188,-0.846038818359375,0.7223663330078125,-0.053253173828125
2.52,-0.4468206465244293,1.7887216806411743,0.9378891587257385,-0.3629150390625,0.4127044677734375,0.16485595703125
2.54,-0.05103309080004692,0.4157588481903076,0.9452517628669739,-0.3444061279296875,0.373199462890625,0.2694549560546875
2.56,0.2040037363767624,-0.005537510849535465,0.9127470850944519,-0.1374969482421875,0.598175048828125,0.1317138671875
2.58,0.07167365401983261,0.4557662010192871,0.7374277114868164,-0.3109283447265625,0.7210693359375,0.153350830078125
2.6,-0.2794010043144226,0.9006373882293701,0.4922834634780884,-0.4897308349609375,0.707427978515625,0.404449462890625
2.62,-0.30142083764076233,0.58706134557724,0.06535130739212036,-0.5114593505859375,0.6422576904296875,0.5485076904296875
2.64,0.22273214161396027,0.11183199286460876,-0.3204818665981293,-0.4130096435546875,0.7745361328125,0.33074951171875
2.66,1.1547585725784302,-0.06590604782104492,0.18797282874584198,-0.180145263671875,0.960723876953125,0.099609375
2.68,0.5458992719650269,-0.8427378535270691,1.0252845287322998,0.15289306640625,1.3751983642578125,-0.183074951171875
2.7,-0.5997108221054077,-0.8274217844009399,0.6961537599563599,0.2268218994140625,1.253173828125,0.3438873291015625
2.72,-1.2116618156433105,0.08985985070466995,-0.034204576164484024,-0.204376220703125,0.8529815673828125,0.6150970458984375
2.74,-0.5110771059989929,-0.5361036658287048,-0.05345310643315315,-0.249664306640625,1.226348876953125,0.544830322265625
2.76,0.6254841089248657,-0.6524345278739929,0.34669750928878784,-0.0446319580078125,1.406463623046875,0.1117401123046875
2.78,1.2471951246261597,-0.7987954616546631,0.31095200777053833,0.0693206787109375,1.19512939453125,-0.0203704833984375
2.8,0.913417637348175,-1.149467945098877,0.012635101564228535,0.0717620849609375,1.0860748291015625,-0.1265106201171875
2.82,0.27122190594673157,-0.3892636001110077,0.39418405294418335,-0.2173614501953125,1.0731658935546875,0.026458740234375
2.84,0.5021336674690247,-0.47894421219825745,0.8634455800056458,-0.5486297607421875,1.3634796142578125,-0.0694732666015625
2.86,0.7895553708076477,-0.7148566246032715,0.8639219999313354,-0.3751068115234375,1.1030426025390625,-0.222991943359375
2.88,1.097544550895691,-0.3511984944343567,0.35828784108161926,-0.2788543701171875,0.6308135986328125,-0.2412872314453125
2.9,1.1596317291259766,0.7105209827423096,-0.16030392050743103,-0.268096923828125,0.369354248046875,-0.2654876708984375
2.92,1.0116935968399048,1.5455503463745117,-0.41554659605026245,-0.24981689453125,0.2996978759765625,-0.1591339111328125
2.94,1.1184920072555542,1.0061787366867065,-0.25084155797958374,-0.375823974609375,0.3982391357421875,-0.123291015625
2.96,0.8315802812576294,-1.0925618410110474,-0.7756446003913879,-0.4244384765625,0.5128326416015625,-0.2195587158203125
2.98,-0.7263302803039551,-0.9292956590652466,-1.6555689573287964,-0.2674407958984375,0.36376953125,-0.312103271484375
3,-2.0983846187591553,0.9951202273368835,-1.9869900941848755,-0.4941864013671875,0.7501373291015625,0.0965728759765625
3.02,-1.3205366134643555,-0.14179255068302155,-0.16224722564220428,-0.724334716796875,0.810394287109375,-0.0515594482421875
3.04,-0.5970208048820496,-0.33118724822998047,1.3890880346298218,-0.59857177734375,0.8857421875,-0.5330810546875
3.06,-0.38671496510505676,0.2606337070465088,0.9516212344169617,-0.312591552734375,0.6373443603515625,-0.3783111572265625
3.08,0.6054563522338867,1.2770813703536987,-0.48617708683013916,-0.3541259765625,0.5543670654296875,0.017791748046875
3.1,1.970069408416748,-0.3894740045070648,-1.3306844234466553,-0.3916473388671875,0.56939697265625,-0.1125335693359375
3.12,3.8231277465820312,-1.0912792682647705,-1.0086543560028076,-0.1428375244140625,0.7528533935546875,-0.1444244384765625
3.14,1.5705620050430298,-0.3652629256248474,0.897354245185852,0.567596435546875,1.7487640380859375,-0.4403839111328125
3.16,-0.537666380405426,-1.543442964553833,-0.21099506318569183,0.3245086669921875,2.6020660400390625,-0.4472808837890625
3.18,1.0512855052947998,0.24640631675720215,-0.49723321199417114,-1.279296875,2.693695068359375,-0.375946044921875
3.2,0.5001938343048096,0.5652679204940796,-0.27188557386398315,-0.43267822265625,0.5607452392578125,-0.2209930419921875
3.22,0.1286969929933548,-0.21125072240829468,-0.3115576207637787,-0.4075775146484375,0.685882568359375,0.093505859375
3.24,0.29276156425476074,-0.05937224626541138,-0.04492965713143349,-0.330322265625,0.969482421875,-0.2002105712890625
3.26,0.15350539982318878,-0.14050890505313873,0.1000317931175232,-0.2745819091796875,0.95806884765625,-0.2806396484375
3.28,0.09380665421485901,-0.26094532012939453,0.3022775650024414,-0.260833740234375,0.956451416015625,-0.1484832763671875
3.3,0.00023968449386302382,-0.06655532121658325,0.48672357201576233,-0.283477783203125,0.9792938232421875,-0.09228515625
3.32,-0.09225855767726898,0.2318345606327057,0.5396195650100708,-0.3328857421875,0.9875946044921875,-0.0479278564453125
3.34,0.14371269941329956,0.43686068058013916,0.508155882358551,-0.3572998046875,0.9113006591796875,-0.06396484375
3.36,0.3961675763130188,0.678217887878418,0.50150066614151,-0.3834991455078125,0.8174285888671875,-0.1595001220703125
3.38,0.3638397455215454,0.7656502723693848,0.4577060341835022,-0.375396728515625,0.8463134765625,-0.1788177490234375
3.4,-0.15885595977306366,0.7642813920974731,0.5187520980834961,-0.3289794921875,0.9004669189453125,-0.0683135986328125
3.42,-0.2713651955127716,0.5359609127044678,0.5278939008712769,-0.31024169921875,0.96258544921875,-0.0144805908203125
3.44,-0.009896039962768555,0.10740954428911209,0.4279254972934723,-0.2772674560546875,1.064605712890625,-0.091217041015625
3.46,0.0034466630313545465,-0.03803446888923645,0.4811972379684448,-0.28875732421875,1.08380126953125,-0.11114501953125
3.48,-0.2696245610713959,-0.08827260136604309,0.5836213827133179,-0.4590606689453125,0.9880218505859375,-0.064300537109375
3.5,-0.3535540699958801,0.032176047563552856,0.543936550617218,-0.6109771728515625,0.9777679443359375,0.0475921630859375
3.52,-0.4607582986354828,-0.178238183259964,0.4283880889415741,-0.7089385986328125,0.9946441650390625,0.085235595703125
3.54,-0.606329619884491,-0.4600379168987274,0.5044690370559692,-0.591888427734375,1.0721893310546875,0.037445068359375
3.56,-0.7680742740631104,-0.9337316751480103,0.47550126910209656,-0.4731903076171875,1.071868896484375,-0.002532958984375
3.58,-1.1337313652038574,-1.4727379083633423,0.44270020723342896,-0.42608642578125,1.0767364501953125,-0.0121612548828125
3.6,-1.5750619173049927,-2.1369714736938477,0.3444631099700928,-0.4058380126953125,1.0695343017578125,-0.002777099609375
3.62,-1.9262747764587402,-2.5582215785980225,0.3697274625301361,-0.392120361328125,1.1796417236328125,-0.00927734375
3.64,-2.4378652572631836,-2.067211627960205,0.3513718843460083,-0.135650634765625,1.2583160400390625,-0.0021209716796875
3.66,-2.91269850730896,-1.4109312295913696,0.2138552963733673,-0.0580902099609375,1.1456451416015625,0.116058349609375
3.68,-2.6993277072906494,-0.7984061241149902,-0.204838365316391,-0.0335845947265625,1.1374664306640625,0.1416015625
3.7,-2.150156021118164,-0.40347155928611755,-0.8399929404258728,-0.15191650390625,1.1714630126953125,0.0421295166015625
3.72,-1.5827099084854126,-0.9247280955314636,-1.2406114339828491,-0.2853851318359375,1.164154052734375,-0.062347412109375
3.74,-1.3723961114883423,-1.6011369228363037,-1.4008499383926392,-0.3643341064453125,1.0502166748046875,-0.205718994140625
3.76,-1.1900724172592163,-2.1999175548553467,-1.511596918106079,-0.3963623046875,0.96807861328125,-0.208892822265625
3.78,-0.8740974068641663,-2.7396843433380127,-1.841858148574829,-0.3276824951171875,0.983612060546875,-0.074066162109375
3.8,-0.34157171845436096,-3.0673668384552,-1.9793814420700073,-0.402130126953125,1.034210205078125,-0.09088134765625
3.82,-0.14276434481143951,-3.0448760986328125,-1.9458013772964478,-0.402130126953125,1.034210205078125,-0.09088134765625
3.84,-0.09741417318582535,-2.846358299255371,-1.6572654247283936,-0.3564453125,0.9255523681640625,0.0124664306640625
3.86,-0.16153723001480103,-2.494812250137329,-1.3446323871612549,-0.19580078125,0.842437744140625,0.0895538330078125
3.88,-0.0877532884478569,-2.4090824127197266,-1.1962562799453735,-0.1021575927734375,0.8023834228515625,0.1170806884765625
3.9,0.1213378757238388,-2.1288065910339355,-1.0679731369018555,-0.0564117431640625,0.7584686279296875,0.0916290283203125
3.92,0.3534366190433502,-1.5396325588226318,-0.924927294254303,0.0700531005859375,0.6616973876953125,0.0682220458984375
3.94,0.4503149688243866,-0.851922869682312,-0.7008164525032043,0.0700531005859375,0.6616973876953125,0.0682220458984375
3.96,0.5734542012214661,-0.35037878155708313,-0.47240588068962097,0.1672821044921875,0.676727294921875,0.0383148193359375
3.98,0.6928573250770569,-0.06422053277492523,-0.24893419444561005,0.1581573486328125,0.6552886962890625,0.0453948974609375
4,0.7593274116516113,0.036319658160209656,-0.07835419476032257,0.079925537109375,0.6800689697265625,0.1412811279296875
4.02,0.7470456957817078,0.050565171986818314,0.036135900765657425,-0.0290069580078125,0.7169952392578125,0.2699432373046875
4.04,0.7152283787727356,0.09146945923566818,0.04966023191809654,-0.1301727294921875,0.7575225830078125,0.3773345947265625
4.06,0.6982648372650146,0.06549245864152908,-0.09322501718997955,-0.1876373291015625,0.8336639404296875,0.400970458984375
4.08,0.6907989382743835,0.10450776666402817,-0.35691124200820923,-0.2248077392578125,0.90802001953125,0.432891845703125
4.1,0.5442124605178833,0.3102071285247803,-0.5320820212364197,-0.299102783203125,0.98931884765625,0.6214447021484375
4.12,0.06885789334774017,0.5809352993965149,-0.5913538336753845,-0.470733642578125,0.932647705078125,0.759063720703125
4.14,-0.2518918812274933,-0.7779053449630737,-0.6316059231758118,-0.7035980224609375,1.114501953125,0.7026214599609375
4.16,0.1262436956167221,-1.5029184818267822,-0.5617938041687012,-0.7303619384765625,1.1248321533203125,0.6854400634765625
4.18,0.6438945531845093,-0.8831489682197571,-0.34212058782577515,-0.378143310546875,0.792572021484375,0.527679443359375
4.2,0.8033619523048401,-0.05963669717311859,0.004716990981251001,-0.0108642578125,0.4851837158203125,0.2955474853515625
4.22,0.9077837467193604,0.488088458776474,0.1487673670053482,0.1351776123046875,0.6538543701171875,0.183258056640625
4.24,0.6174240708351135,0.6084638833999634,0.10388192534446716,0.0501556396484375,0.987945556640625,0.120086669921875
4.26,-0.15131628513336182,0.2617839276790619,0.6806499361991882,-0.0863037109375,1.252227783203125,0.205535888671875
4.28,-0.6994166970252991,-0.14906644821166992,-0.05408880114555359,-0.1496734619140625,2.32672119140625,0.443359375
4.3,-0.019292205572128296,0.8348588943481445,-0.2170015573501587,-0.9313201904296875,2.4815673828125,0.13507080078125
4.32,0.3439347445964813,1.336334228515625,0.22682036459445953,-0.267547607421875,0.5599365234375,-0.581939697265625
4.34,0.4983879625797272,1.962087631225586,0.47013023495674133,0.586639404296875,0.1259002685546875,-0.435516357421875
4.36,1.4277595281600952,4.377322673797607,0.727377712726593,0.399658203125,0.1305084228515625,-0.4066314697265625
4.38,1.2038800716400146,4.537467002868652,0.36126551032066345,-0.108856201171875,0.8269195556640625,-0.852569580078125
4.4,0.20391371846199036,3.5839650630950928,-0.10477488487958908,-0.733795166015625,1.58428955078125,-0.05938720703125
4.42,-0.05155933275818825,3.4615371227264404,0.05048234760761261,-0.6813507080078125,1.888092041015625,0.3098602294921875
4.44,-0.12012773752212524,3.686859369277954,0.45425352454185486,-0.1083831787109375,1.1493988037109375,0.1148681640625
4.46,-0.022037656977772713,3.5232768058776855,0.7687137126922607,0.3368072509765625,0.6693878173828125,-0.263671875
4.48,0.2402821034193039,3.172926902770996,0.9499016404151917,0.1060333251953125,0.443756103515625,-0.4027099609375
4.5,0.05451144650578499,2.2119321823120117,0.6826387643814087,-0.4463348388671875,0.6352081298828125,-0.497589111328125
4.52,-0.07122144848108292,1.8264185190200806,0.4406788647174835,-1.005523681640625,0.9476165771484375,-0.2657623291015625
4.54,0.08198647946119308,0.8332713842391968,0.1505676656961441,-1.2427215576171875,0.963348388671875,-0.0226593017578125
4.56,-0.01733930967748165,0.5309573411941528,0.09907704591751099,-0.874725341796875,0.920867919921875,0.0470123291015625
4.58,-0.1805676519870758,0.5184034705162048,0.13150689005851746,-0.4618377685546875,0.9161834716796875,-0.0471343994140625
4.6,-0.30494046211242676,0.5944164991378784,-0.021136177703738213,-0.403656005859375,0.902069091796875,-0.03314208984375
4.62,-0.29102277755737305,0.35708943009376526,-0.1608613133430481,-0.5199737548828125,0.9405517578125,-0.04931640625
4.64,-0.2311709076166153,0.40448543429374695,-0.16652986407279968,-0.5396575927734375,0.9237823486328125,-0.0563812255859375
4.66,-0.30737459659576416,0.4320198595523834,-0.22561022639274597,-0.364410400390625,0.8799285888671875,-0.1228179931640625
4.68,-0.11762277036905289,0.31318801641464233,-0.1839543879032135,-0.309661865234375,0.783721923828125,-0.0737762451171875
4.7,0.26612967252731323,0.30738070607185364,-0.20860594511032104,-0.275665283203125,0.691253662109375,-0.1066436767578125
4.72,0.7040018439292908,0.10988974571228027,0.011783688329160213,-0.344940185546875,0.772491455078125,-0.0708160400390625
4.74,0.49918290972709656,-0.33332550525665283,0.19571223855018616,-0.1767578125,0.8527374267578125,-0.109832763671875
4.76,0.46011751890182495,-0.053406499326229095,0.188528373837471,-0.2015228271484375,0.85528564453125,0.12890625
4.78,0.4078633785247803,0.050205379724502563,0.2484028935432434,-0.267120361328125,0.97515869140625,0.0812530517578125
4.8,0.3485763669013977,0.16858235001564026,0.4013511538505554,-0.2123870849609375,1.028106689453125,0.1046142578125
4.82,0.29298126697540283,0.3230006992816925,0.5750814080238342,-0.088592529296875,0.9788055419921875,0.0955657958984375
4.84,0.2542666494846344,0.48507562279701233,0.6597699522972107,-0.0937957763671875,0.9492034912109375,0.1086578369140625
4.86,0.33573007583618164,0.4470597803592682,0.6850430369377136,-0.1851959228515625,0.953399658203125,0.0125732421875
4.88,0.49514156579971313,0.15555763244628906,0.7009019255638123,-0.2060699462890625,0.9805450439453125,-0.1829833984375
4.9,0.32948416471481323,0.18376557528972626,0.7071177363395691,-0.1799163818359375,1.0096435546875,-0.2297515869140625
4.92,0.19362352788448334,0.6148330569267273,0.6995663642883301,-0.19598388671875,0.997711181640625,-0.0239715576171875
4.94,0.1288546472787857,0.8345995545387268,0.7096522450447083,-0.28369140625,1.01483154296875,0.0897674560546875
4.96,0.12976518273353577,0.5063257813453674,0.7403180599212646,-0.38800048828125,1.0175323486328125,0.038665771484375
4.98,0.22216355800628662,-0.03725282847881317,0.7241500020027161,-0.462799072265625,1.02093505859375,-0.07574462890625
5,0.4136198163032532,-0.4205123484134674,0.7490534782409668,-0.56640625,1.02899169921875,-0.054046630859375
5.02,0.4901483952999115,-0.6086228489875793,0.9019543528556824,-0.6441497802734375,0.9811553955078125,0.05023193359375
5.04,0.4021413028240204,-0.7290003895759583,1.0403319597244263,-0.7655181884765625,0.9605865478515625,0.190277099609375
5.06,0.28819262981414795,-1.422616720199585,1.0200068950653076,-0.7655181884765625,0.9605865478515625,0.190277099609375
5.08,-0.11875168234109879,-1.7324813604354858,0.6982765793800354,-0.71923828125,1.024322509765625,0.2314300537109375
5.1,-1.03730309009552,-2.0951271057128906,0.5133482813835144,-0.694305419921875,1.178985595703125,0.0314788818359375
5.12,-1.7803114652633667,-2.2343575954437256,0.22522538900375366,-0.4804229736328125,1.1968994140625,0.1371002197265625
5.14,-2.6366913318634033,-2.476696491241455,-0.22009454667568207,-0.363983154296875,1.1654815673828125,0.1108551025390625
5.16,-3.132411479949951,-2.4011707305908203,-0.7671861052513123,-0.292388916015625,1.39056396484375,0.207427978515625
5.18,-3.0551106929779053,-1.6002838611602783,-1.094096302986145,-0.227020263671875,1.6023101806640625,0.183929443359375
5.2,-2.7183399200439453,-0.06818704307079315,-1.0885846614837646,-0.0851287841796875,1.5613250732421875,0.0725250244140625
5.22,-1.990314245223999,0.8422792553901672,-0.893388569355011,0.138427734375,1.51983642578125,-0.0077972412109375
5.24,-1.123897671699524,-0.7244743704795837,-0.9264159798622131,0.154510498046875,1.25341796875,-0.24908447265625
5.26,-0.8035936951637268,-2.718496561050415,-1.7039655447006226,0.282440185546875,0.9605865478515625,-0.536224365234375
5.28,-1.4348547458648682,-3.095611095428467,-1.5203979015350342,-0.31890869140625,1.0569000244140625,-0.468353271484375
5.3,-1.571140170097351,-2.6767287254333496,-1.3783278465270996,-0.317779541015625,1.0066375732421875,0.290283203125
5.32,-1.2664028406143188,-3.1847898960113525,-1.4166312217712402,-0.147613525390625,0.9765167236328125,0.3186492919921875
5.34,-1.1974350214004517,-3.0888774394989014,-1.3172980546951294,-0.0301055908203125,1.0238037109375,0.0772247314453125
5.36,-0.9849064946174622,-2.4375460147857666,-1.099605917930603,-0.0269317626953125,0.7818145751953125,0.06744384765625
5.38,-0.7036183476448059,-2.3204007148742676,-0.8586534857749939,-0.040283203125,0.66644287109375,0.1651458740234375
5.4,-0.5132406949996948,-2.4504828453063965,-0.5528285503387451,-0.0753631591796875,0.6709442138671875,0.11376953125
5.42,-0.31962114572525024,-2.358598232269287,-0.2689150869846344,0.0684661865234375,0.7747650146484375,0.00408935546875
5.44,-0.07844207435846329,-1.6828235387802124,-0.06438884139060974,0.1680908203125,0.736480712890625,-0.0668487548828125
5.46,0.27239423990249634,-0.9149414896965027,-0.07780957967042923,0.1589813232421875,0.687042236328125,0.03497314453125
5.48,0.5725393891334534,-0.3144173324108124,-0.06957295536994934,0.080963134765625,0.670196533203125,0.074615478515625
5.5,0.7892230153083801,-0.02966122329235077,-0.029526466503739357,0.0708770751953125,0.6757659912109375,0.11590576171875
5.52,1.0153053998947144,0.09579657018184662,0.0064981128089129925,0.0691680908203125,0.6700897216796875,0.1336212158203125
5.54,1.321826457977295,0.27982231974601746,0.025290708988904953,0.0381622314453125,0.653472900390625,0.145111083984375
5.56,1.7270455360412598,0.5555228590965271,0.016291089355945587,-0.003448486328125,0.63861083984375,0.14971923828125
5.58,2.130547046661377,0.8272897005081177,0.02834775112569332,-0.0226287841796875,0.55718994140625,0.1338653564453125
5.6,2.3365864753723145,1.0492618083953857,0.039500270038843155,-0.0004119873046875,0.5231781005859375,0.1906585693359375
5.62,1.9194083213806152,0.9176227450370789,0.002445580903440714,-0.3309783935546875,1.0211639404296875,0.82489013671875
5.64,-0.13875149190425873,-0.0372520312666893,-0.19918660819530487,-0.3309783935546875,1.0211639404296875,0.82489013671875
5.66,-1.4818682670593262,-0.8360874056816101,-0.8897069692611694,-0.8694305419921875,1.884979248046875,1.5834197998046875
5.68,-0.8737602233886719,-1.940731167793274,-1.2546907663345337,-1.394439697265625,2.491729736328125,1.4421844482421875
5.7,-0.3368528485298157,-1.8989619016647339,-0.859859049320221,-0.53106689453125,1.2603302001953125,0.80126953125
5.72,0.21732912957668304,-0.5955004096031189,-0.222846120595932,0.2852325439453125,0.191314697265625,0.5684967041015625
5.74,1.1581165790557861,0.9880133271217346,0.13125309348106384,0.5294647216796875,0.026275634765625,0.071258544921875
5.76,1.4293006658554077,2.0382649898529053,0.02389041893184185,0.3578948974609375,0.5038299560546875,-0.3321685791015625
5.78,0.4175061583518982,1.5649880170822144,0.14832262694835663,0.0292205810546875,0.8751068115234375,-0.306640625
5.8,-0.9163638949394226,-0.06209665909409523,0.3270028829574585,-0.183380126953125,1.4487152099609375,0.456085205078125
5.82,0.47024235129356384,0.7364093065261841,-0.5135855674743652,-0.5891265869140625,2.689300537109375,0.822357177734375
5.84,0.9068731665611267,0.9896277189254761,-0.3848816454410553,-1.14361572265625,1.24676513671875,-0.942626953125
5.86,0.9317540526390076,1.445644736289978,0.2279290407896042,0.057525634765625,0.2466583251953125,-0.373138427734375
5.88,1.3451341390609741,2.3192362785339355,0.7333924770355225,0.5117034912109375,0.072296142578125,-0.325653076171875
5.9,1.7917207479476929,2.871483325958252,0.8826027512550354,0.1950225830078125,0.567352294921875,-0.6096038818359375
5.92,1.3675808906555176,2.2703959941864014,0.4033658504486084,-0.3123626708984375,1.3404388427734375,-0.2510223388671875
5.94,0.9740988612174988,1.812773585319519,0.120781809091568,-0.7054290771484375,1.4366607666015625,0.199005126953125
5.96,0.8740710616111755,1.150802493095398,0.0326349101960659,-0.4938507080078125,1.200225830078125,0.061676025390625
5.98,0.9490938782691956,0.5801946520805359,0.03524507209658623,-0.25640869140625,0.822418212890625,-0.25341796875
6,1.1342005729675293,0.7264152765274048,-0.08275959640741348,-0.159027099609375,0.756500244140625,-0.35546875
6.02,0.9833738207817078,1.2393789291381836,-0.14939987659454346,-0.2744598388671875,0.8702239990234375,-0.2113037109375
6.04,0.5639720559120178,1.2802600860595703,-0.10888280719518661,-0.305572509765625,0.9186248779296875,0.0626678466796875
6.06,0.43093249201774597,0.9803593754768372,0.024521321058273315,-0.2776031494140625,0.9447021484375,0.1556243896484375
6.08,0.6343598961830139,0.6606740951538086,0.22693833708763123,-0.218292236328125,0.8636016845703125,0.02935791015625
6.1,0.873009204864502,0.6454876661300659,0.37031200528144836,-0.2037200927734375,0.8205413818359375,-0.0634765625
6.12,0.7599162459373474,0.7280365824699402,0.6126722097396851,-0.197265625,0.81854248046875,-0.1191253662109375
6.14,0.5806737542152405,0.9060239195823669,0.6154067516326904,-0.1433563232421875,0.9244842529296875,-0.00433349609375
6.16,0.7601341009140015,1.2796730995178223,0.5034676790237427,-0.299652099609375,1.0056610107421875,0.0406036376953125
6.18,0.5904483795166016,1.1133954524993896,0.5027145147323608,-0.3743438720703125,1.0291290283203125,0.011932373046875
6.2,0.1581353098154068,0.9672552943229675,0.53819340467453,-0.2988433837890625,1.027801513671875,0.2034149169921875
6.22,-0.20229025185108185,0.9728388786315918,0.42643865942955017,-0.3068084716796875,1.0926361083984375,0.2841949462890625
6.24,-0.33778175711631775,0.37535977363586426,0.1659487634897232,-0.4318695068359375,1.1143951416015625,0.1832275390625
6.26,-0.3877916634082794,0.1500113308429718,0.04337064176797867,-0.600189208984375,1.0081787109375,-0.0838165283203125
6.28,-0.5341925621032715,0.2631456255912781,-0.13081660866737366,-0.6152801513671875,1.0455780029296875,-0.101287841796875
6.3,-0.9565728306770325,0.2894858717918396,-0.18865087628364563,-0.6428375244140625,1.2858428955078125,0.0462493896484375
6.32,-1.5474398136138916,-0.285457581281662,-0.13834908604621887,-0.6214447021484375,1.2665252685546875,0.13934326171875
6.34,-2.271514654159546,-1.278259515762329,-0.24340839684009552,-0.536376953125,1.176513671875,0.161224365234375
6.36,-2.607419490814209,-2.4622538089752197,-0.47382909059524536,-0.5587158203125,1.09979248046875,0.17620849609375
6.38,-3.4511826038360596,-2.373338222503662,-0.15550915896892548,-0.4178466796875,1.2008209228515625,0.072418212890625
6.4,-3.592931032180786,-0.9396774768829346,0.14614655077457428,0.08416748046875,1.2243804931640625,0.3225860595703125
6.42,-3.2498068809509277,0.9301753044128418,0.263637512922287,0.1757354736328125,1.2379608154296875,-0.0066375732421875
6.44,-2.097562313079834,0.12408013641834259,-0.44778338074684143,0.191925048828125,1.5094451904296875,-0.159149169921875
6.46,-1.511014461517334,-2.372455358505249,-0.9156525731086731,-0.2109375,1.4936065673828125,-0.37176513671875
6.48,-2.118969678878784,-2.3691539764404297,-1.1384624242782593,-0.40277099609375,1.2839202880859375,-0.28082275390625
6.5,-1.7012879848480225,-2.0850260257720947,-1.147895336151123,-0.6009674072265625,1.2669219970703125,0.36907958984375
6.52,-1.415513277053833,-2.69330096244812,-1.1962685585021973,-0.462432861328125,1.2057952880859375,0.1799468994140625
6.54,-1.249050259590149,-2.665677785873413,-1.2082644701004028,-0.3331298828125,0.96453857421875,-0.0552825927734375
6.56,-0.782059907913208,-2.1452462673187256,-1.3199257850646973,-0.216339111328125,0.700897216796875,-0.0162811279296875
6.58,-0.34043774008750916,-2.164501905441284,-1.2982484102249146,0.0564422607421875,0.53485107421875,0.008026123046875
6.6,-0.05499853566288948,-2.3088412284851074,-1.0361406803131104,0.0564422607421875,0.53485107421875,0.008026123046875
6.62,0.3285243511199951,-2.3980019092559814,-0.7913790941238403,0.089935302734375,0.4927520751953125,0.015167236328125
6.64,0.7271659970283508,-1.9289698600769043,-0.6271251440048218,0.06829833984375,0.535736083984375,-0.04168701171875
6.66,1.1415389776229858,-1.2013120651245117,-0.6332365870475769,0.0229644775390625,0.5242156982421875,-0.0474853515625
6.68,1.5275825262069702,-0.5125392079353333,-0.6422050595283508,0.0017547607421875,0.458709716796875,-0.0078125
6.7,1.928808569908142,0.019358783960342407,-0.534906268119812,0.052276611328125,0.4776763916015625,0.036468505859375
6.72,2.2653963565826416,0.4197687804698944,-0.2517741918563843,0.1101226806640625,0.4977264404296875,0.0579376220703125
6.74,2.3840081691741943,0.6823399662971497,0.14594309031963348,0.1090240478515625,0.5149078369140625,0.1309814453125
6.76,2.0060224533081055,0.7236988544464111,0.3428891897201538,0.05029296875,0.6845550537109375,0.302001953125
6.78,1.1906495094299316,-0.5387894511222839,-0.18852198123931885,-0.1478729248046875,1.04241943359375,0.580230712890625
6.8,-0.28798091411590576,-1.7785964012145996,-0.38386163115501404,-0.706146240234375,1.5540008544921875,1.1440887451171875
6.82,-1.0078035593032837,-1.74097740650177,-0.9189397096633911,-0.967254638671875,2.2065582275390625,1.5661163330078125
6.84,-0.6752111911773682,-1.6499028205871582,-0.7064934968948364,-0.8292999267578125,1.5564117431640625,0.925994873046875
6.86,0.2412051558494568,-0.992624044418335,-0.18492405116558075,-0.173553466796875,0.4367828369140625,0.606719970703125
6.88,0.9895028471946716,0.18453629314899445,-0.00809361319988966,0.089111328125,-0.03509521484375,0.0818939208984375
6.9,1.4830390214920044,1.0020159482955933,0.1211882084608078,0.049957275390625,0.4938201904296875,-0.1920318603515625
6.92,1.1433824300765991,0.853866457939148,0.4588314890861511,-0.0008544921875,0.9631500244140625,-0.1749114990234375
6.94,-0.9031338691711426,-1.3225215673446655,-0.04253893718123436,-0.02911376953125,1.3534088134765625,0.292022705078125
6.96,-0.09105774015188217,0.34214723110198975,-0.6812379360198975,-0.5645294189453125,2.6073150634765625,1.1140594482421875
6.98,0.901092529296875,0.8732665181159973,-0.34929248690605164,-1.3834228515625,1.4774322509765625,-0.146942138671875
7,0.6698483824729919,0.2896624505519867,0.5631930232048035,0.0228729248046875,0.251495361328125,-0.743194580078125
7.02,0.8309549689292908,1.683148741722107,1.3439970016479492,0.743072509765625,0.0152435302734375,-0.30865478515625
7.04,1.9409277439117432,1.780381441116333,1.5005868673324585,0.44378662109375,0.3161163330078125,-0.6011962890625
7.06,2.139906883239746,1.5089023113250732,0.6680771112442017,-0.1855010986328125,1.165618896484375,-0.8095245361328125
7.08,1.480736255645752,0.9471005201339722,-0.12938594818115234,-0.903900146484375,1.5842742919921875,-0.19732666015625
7.1,0.8855655193328857,-0.011577294208109379,-0.018620023503899574,-0.918914794921875,1.51312255859375,0.30584716796875
7.12,0.9199005961418152,-0.21056576073169708,-0.08881056308746338,-0.177581787109375,0.9498138427734375,0.0398406982421875
7.14,1.0406371355056763,0.08461715281009674,-0.13878105580806732,-0.0572052001953125,0.788177490234375,-0.31524658203125
7.16,1.251374363899231,0.47644031047821045,-0.08568534255027771,-0.1778411865234375,0.9037933349609375,-0.2248077392578125
7.18,1.0483429431915283,0.4803066849708557,-0.013629792258143425,-0.1641387939453125,0.90435791015625,-0.141937255859375
7.2,0.9060103297233582,0.3833657503128052,0.145081028342247,-0.0682830810546875,0.948974609375,0.141571044921875
7.22,0.9068819880485535,0.3625342547893524,0.26782211661338806,-0.094390869140625,0.8798828125,0.0982818603515625
7.24,0.8892747759819031,0.2661944031715393,0.40143316984176636,-0.195526123046875,0.7848358154296875,-0.0052642822265625
7.26,0.9321165084838867,0.31388920545578003,0.521302342414856,-0.2207794189453125,0.8157501220703125,-0.05926513671875
7.28,0.97895747423172,0.5403652191162109,0.6425549983978271,-0.1918182373046875,0.9108734130859375,-0.085205078125
7.3,0.9477436542510986,0.5829204320907593,0.7727681398391724,-0.177459716796875,0.9439849853515625,-0.0941925048828125
7.32,0.9189759492874146,0.41419878602027893,0.7836559414863586,-0.2078857421875,0.9278106689453125,-0.035400390625
7.34,0.6820067763328552,0.43340763449668884,0.7380913496017456,-0.251922607421875,0.9806060791015625,0.0708465576171875
7.36,0.08805076032876968,0.7476145625114441,0.7121215462684631,-0.2993316650390625,1.1067962646484375,0.3033905029296875
7.38,-0.411319375038147,0.5414113402366638,0.6320490837097168,-0.30645751953125,1.22235107421875,0.4785614013671875
7.4,-0.14639556407928467,-0.5036474466323853,0.36860278248786926,-0.3585357666015625,1.2219085693359375,0.243011474609375
7.42,0.22330552339553833,-1.334610104560852,0.27106451988220215,-0.494659423828125,1.092010498046875,-0.140655517578125
7.44,-0.3910292685031891,-1.6212674379348755,0.39941397309303284,-0.537139892578125,1.0914764404296875,-0.1986541748046875
7.46,-1.499718427658081,-1.412011742591858,0.4202902317047119,-0.6132049560546875,1.2812957763671875,0.2308197021484375
7.48,-2.3904190063476562,-1.908136248588562,0.009100553579628468,-0.8017120361328125,1.3245849609375,0.3509063720703125
7.5,-2.515214204788208,-3.2982707023620605,-0.3770221173763275,-0.8776397705078125,1.2289886474609375,0.102874755859375
7.52,-2.743175745010376,-4.567686557769775,-0.12807966768741608,-0.6399993896484375,1.1394500732421875,-0.1961822509765625
7.54,-3.0301928520202637,-4.203436851501465,0.04290219396352768,-0.0263519287109375,1.1157379150390625,0.0240936279296875
7.56,-3.021543264389038,-1.5450483560562134,0.32827216386795044,0.0120086669921875,1.0790252685546875,-0.012176513671875
7.58,-2.7144672870635986,-0.3969939649105072,-0.16207624971866608,0.0012664794921875,1.317047119140625,-0.2279815673828125
7.6,-1.9855538606643677,-1.82377028465271,-1.2563477754592896,-0.2635345458984375,1.359527587890625,-0.2097320556640625
7.62,-1.705951452255249,-3.2529349327087402,-1.4408119916915894,-0.4641265869140625,1.3623199462890625,-0.268280029296875
7.64,-1.8570659160614014,-3.434204578399658,-1.6209218502044678,-0.4061431884765625,1.374176025390625,-0.1319732666015625
7.66,-1.5986005067825317,-3.551715612411499,-1.4730266332626343,-0.4870452880859375,1.264739990234375,0.037200927734375
7.68,-1.259216070175171,-3.4915857315063477,-1.409258246421814,-0.3414306640625,1.13677978515625,-0.067901611328125
7.7,-1.0074381828308105,-3.1525931358337402,-1.385317325592041,-0.3662261962890625,0.9457244873046875,-0.14593505859375
7.72,-0.4976806342601776,-2.8730661869049072,-1.551427960395813,-0.2560577392578125,0.7715606689453125,-0.0616455078125
7.74,-0.013636716641485691,-2.8528239727020264,-1.6302000284194946,-0.1112213134765625,0.659881591796875,-0.05364990234375
7.76,0.34326493740081787,-2.8112430572509766,-1.4722577333450317,0.01177978515625,0.5919189453125,-0.0974273681640625
7.78,0.6477822661399841,-2.6189680099487305,-1.2774860858917236,0.082611083984375,0.5869903564453125,-0.173614501953125
7.8,0.9660398364067078,-2.1130456924438477,-1.1370192766189575,0.1419677734375,0.56805419921875,-0.21142578125
7.82,1.2760344743728638,-1.2357823848724365,-0.9391536116600037,0.232940673828125,0.5578765869140625,-0.2197265625
7.84,1.6642290353775024,-0.27628591656684875,-0.7422504425048828,0.2674102783203125,0.546600341796875,-0.184661865234375
7.86,2.032623291015625,0.524889349937439,-0.3803957998752594,0.26629638671875,0.5191650390625,-0.0898590087890625
7.88,2.2786104679107666,0.9966920018196106,0.094387486577034,0.32952880859375,0.5469970703125,0.052001953125
7.9,2.000257968902588,0.9905856847763062,0.37356534600257874,0.336700439453125,0.699981689453125,0.240875244140625
7.92,1.3337286710739136,-0.5746830105781555,0.05270688608288765,0.1106109619140625,0.971038818359375,0.4786376953125
7.94,-0.658704400062561,-1.9508485794067383,-0.20009048283100128,-0.368804931640625,1.4398040771484375,0.9470367431640625
7.96,-1.2930134534835815,-0.24979625642299652,-1.1283280849456787,-1.222991943359375,1.9539031982421875,0.8926239013671875
7.98,-0.7069537043571472,-1.2923862934112549,-1.7165231704711914,-1.222991943359375,1.9539031982421875,0.8926239013671875
8,0.18706603348255157,-0.7323429584503174,-1.183428406715393,-0.652008056640625,0.726287841796875,0.55694580078125
8.02,1.1196227073669434,0.4040806293487549,-0.4099140167236328,0.1747589111328125,0.0034942626953125,0.1057586669921875
8.04,1.2665109634399414,1.468369483947754,0.1364918053150177,0.4695892333984375,0.3440399169921875,-0.3156280517578125
8.06,-0.854547917842865,-0.2823107838630676,0.7483485341072083,0.053680419921875,1.07061767578125,-0.3972015380859375
8.08,-1.1793431043624878,-1.3755685091018677,-0.25963476300239563,-0.0960540771484375,2.0716552734375,0.579132080078125
8.1,0.8501385450363159,-0.5757684707641602,-0.5872299671173096,-0.952880859375,2.927581787109375,0.9288177490234375
8.12,0.9942155480384827,-0.10024218261241913,-0.1565999984741211,-0.3859710693359375,0.4499053955078125,-1.093292236328125
8.14,0.805822491645813,1.299350380897522,0.7813860774040222,0.5009002685546875,-0.080718994140625,-0.23504638671875
8.16,1.4030320644378662,1.7629278898239136,1.688020944595337,0.555267333984375,-0.17510986328125,-0.37738037109375
8.18,2.3528730869293213,1.2079750299453735,1.2583625316619873,0.03192138671875,0.8349761962890625,-0.7325286865234375
8.2,2.296598434448242,0.07928230613470078,-0.669764518737793,-0.67095947265625,1.7275390625,-0.6287384033203125
8.22,1.3972399234771729,-0.238722026348114,-0.7996503114700317,-1.1946563720703125,1.86505126953125,0.24603271484375
8.24,0.9734380841255188,0.1662001609802246,-0.3403109610080719,-0.3054962158203125,1.140594482421875,0.4490509033203125
8.26,1.02235746383667,0.627400279045105,-0.4523214101791382,0.0275726318359375,0.727142333984375,-0.13909912109375
8.28,1.2841802835464478,1.0406893491744995,-0.15749801695346832,0.0275726318359375,0.727142333984375,-0.13909912109375
8.3,1.2376985549926758,0.4527922570705414,-0.06508605927228928,0.0502471923828125,0.858245849609375,-0.2140655517578125
8.32,1.0795952081680298,0.404294490814209,0.05783373862504959,-0.1087646484375,0.927398681640625,-0.0491790771484375
8.34,0.9448314905166626,0.4498276114463806,0.14921824634075165,-0.2740936279296875,0.900421142578125,0.03662109375
8.36,0.9179865717887878,0.3619329035282135,0.25362321734428406,-0.3205108642578125,0.8627471923828125,0.0301971435546875
8.38,0.987619161605835,0.363722562789917,0.31484636664390564,-0.296905517578125,0.8641815185546875,-0.029052734375
8.4,0.9762954115867615,0.4836620092391968,0.3607616424560547,-0.24139404296875,0.888946533203125,-0.0706787109375
8.42,0.9319870471954346,0.6282950639724731,0.42030060291290283,-0.235870361328125,0.9174346923828125,-0.1166839599609375
8.44,0.9441076517105103,0.710860550403595,0.4652822017669678,-0.235870361328125,0.9174346923828125,-0.1166839599609375
8.46,0.8086603283882141,0.8305270075798035,0.47496384382247925,-0.1832733154296875,0.9357757568359375,-0.039306640625
8.48,0.47670504450798035,0.9359328150749207,0.43943995237350464,-0.1181640625,1.056732177734375,0.1231231689453125
8.5,0.07542045414447784,0.6370822191238403,0.4338635504245758,-0.1067047119140625,1.1537017822265625,0.2802276611328125
8.52,-0.12062574923038483,0.06172381713986397,0.27404725551605225,-0.1909332275390625,1.0858917236328125,0.0862884521484375
8.54,-0.07661781460046768,0.018390990793704987,0.06456673890352249,-0.6622314453125,1.039154052734375,-0.050537109375
8.56,-0.3135680556297302,0.24847665429115295,-0.17938120663166046,-0.6622314453125,1.039154052734375,-0.050537109375
8.58,-0.8192240595817566,0.059775982052087784,-0.0802474319934845,-0.5548095703125,1.303009033203125,0.145416259765625
8.6,-1.3479722738265991,0.07503962516784668,0.0012708604335784912,-0.391387939453125,1.2903900146484375,0.149993896484375
8.62,-2.354389190673828,-0.6067703366279602,-0.07814273983240128,-0.496673583984375,1.2411956787109375,0.1483001708984375
8.64,-2.689246892929077,-1.8370211124420166,-0.47227779030799866,-0.55279541015625,1.1760101318359375,0.27850341796875
8.66,-2.7773842811584473,-2.7565793991088867,-0.5986535549163818,-0.4472503662109375,1.1981048583984375,-0.01995849609375
8.68,-3.188352346420288,-2.142580032348633,-0.013744840398430824,0.515655517578125,1.3008880615234375,0.1264495849609375
8.7,-3.322223424911499,0.31139835715293884,0.5890944004058838,0.47528076171875,1.2899627685546875,-0.0122222900390625
8.72,-2.7031099796295166,1.6975393295288086,0.23175546526908875,0.47528076171875,1.2899627685546875,-0.0122222900390625
8.74,-1.721795678138733,-0.17953939735889435,-0.7182497382164001,0.0194854736328125,1.3311309814453125,-0.190765380859375
8.76,-1.7549371719360352,-1.6287778615951538,-0.7951152324676514,-0.36407470703125,1.3544769287109375,-0.3376617431640625
8.78,-1.8550647497177124,-1.4637116193771362,-0.9953359365463257,-0.394073486328125,1.209320068359375,0.065673828125
8.8,-1.4083267450332642,-1.65185546875,-0.9047495722770691,-0.4517822265625,1.0999755859375,0.324493408203125
8.82,-1.2567989826202393,-2.382359266281128,-0.8013771176338196,-0.2689666748046875,1.0872039794921875,0.09332275390625
8.84,-1.1129142045974731,-2.386411428451538,-0.5302313566207886,-0.288421630859375,0.9014434814453125,-0.0387420654296875
8.86,-0.7337197661399841,-1.9617691040039062,-0.4444917142391205,-0.2122039794921875,0.6614990234375,-0.0104522705078125
8.88,-0.46299320459365845,-1.7877118587493896,-0.35329148173332214,-0.080780029296875,0.5470733642578125,0.044525146484375
8.9,-0.1946033090353012,-1.6278740167617798,-0.26827725768089294,0.0096588134765625,0.5814971923828125,0.036346435546875
8.92,0.17342984676361084,-1.4401429891586304,-0.32364943623542786,0.05072021484375,0.6014251708984375,0.011016845703125
8.94,0.5646008253097534,-1.1752372980117798,-0.3910580277442932,0.1258544921875,0.5539398193359375,-0.0619049072265625
8.96,0.9181634187698364,-0.8642746210098267,-0.41514474153518677,0.1258544921875,0.5539398193359375,-0.0619049072265625
8.98,1.3591737747192383,-0.3127744197845459,-0.41573596000671387,0.1623992919921875,0.4947662353515625,-0.048370361328125
9,1.9243626594543457,0.37698590755462646,-0.3992762863636017,0.181304931640625,0.440826416015625,-0.035003662109375
9.02,2.5878841876983643,0.9728308916091919,-0.37369850277900696,0.18939208984375,0.4235992431640625,0.00323486328125
9.04,2.9225175380706787,1.4827511310577393,-0.2586754858493805,0.123291015625,0.5229644775390625,0.1222076416015625
9.06,1.7950531244277954,1.1064107418060303,-0.027773840352892876,-0.0343170166015625,0.742523193359375,0.3962249755859375
9.08,-0.7292171716690063,-0.29595574736595154,-0.14644190669059753,-0.2757110595703125,1.1743621826171875,1.06005859375
9.1,-1.1688001155853271,-1.0254032611846924,-0.737458348274231,-0.7891693115234375,2.0815887451171875,1.8773040771484375
9.12,-0.47154462337493896,-2.0116448402404785,-1.2029402256011963,-0.86968994140625,2.227294921875,1.0021209716796875
9.14,-0.18952572345733643,-0.7227504849433899,-0.6367365121841431,-0.3298492431640625,1.0831146240234375,0.5764923095703125
9.16,0.49143871665000916,0.6235405206680298,0.13197508454322815,0.39068603515625,0.49456787109375,0.4538116455078125
9.18,0.68187016248703,1.743599772453308,0.5636628270149231,0.7020111083984375,0.590850830078125,-0.0866851806640625
9.2,-1.3453367948532104,-0.5440396070480347,0.4789178669452667,0.37213134765625,1.0671844482421875,-0.1914215087890625
9.22,-0.8494107127189636,-0.24358762800693512,-0.44209539890289307,-0.4134674072265625,2.4745941162109375,0.677093505859375
9.24,0.9217399954795837,0.9499820470809937,-0.809413492679596,-1.1676177978515625,1.436553955078125,-0.023956298828125
9.26,1.1316423416137695,1.2440762519836426,-0.11253906041383743,-0.1975555419921875,0.105316162109375,-0.9811248779296875
9.28,1.2957466840744019,2.3013112545013428,0.9661096334457397,0.7410736083984375,-0.08197021484375,-0.2434234619140625
9.3,2.107515335083008,2.333644390106201,1.4167050123214722,0.6165313720703125,0.2386016845703125,-0.3815765380859375
9.32,2.070359945297241,1.4350345134735107,0.7084897756576538,-0.1482696533203125,1.0992431640625,-0.67889404296875
9.34,0.887108564376831,0.6337774991989136,-0.45336562395095825,-0.9503326416015625,1.7187652587890625,-0.1455230712890625
9.36,0.8895682096481323,0.9457793235778809,-0.3794011175632477,-1.1575469970703125,1.6570587158203125,0.6697540283203125
9.38,1.3025017976760864,0.609173595905304,-0.18376876413822174,-0.216033935546875,0.8544158935546875,0.1308746337890625
9.4,1.3741527795791626,0.5459959506988525,-0.012150672264397144,-0.009796142578125,0.706024169921875,-0.3459625244140625
9.42,1.406794548034668,0.6813623309135437,0.010645986534655094,-0.01806640625,0.7593994140625,-0.3105010986328125
9.44,1.3596603870391846,0.6983820199966431,-0.12325216084718704,-0.2379302978515625,0.9142608642578125,-0.2000274658203125
9.46,1.1325963735580444,0.676932156085968,-0.1459345668554306,-0.379974365234375,0.9811859130859375,-0.116424560546875
9.48,1.0440493822097778,0.5988474488258362,-0.0705825537443161,-0.167022705078125,0.92254638671875,-0.062469482421875
9.5,0.9988307952880859,0.45548683404922485,0.09019966423511505,-0.167022705078125,0.92254638671875,-0.062469482421875
9.52,1.0382932424545288,0.4428083300590515,0.24418283998966217,-0.0745697021484375,0.8902740478515625,-0.0688629150390625
9.54,1.0082932710647583,0.6694507598876953,0.39332571625709534,-0.0773468017578125,0.8920440673828125,-0.0559234619140625
9.56,0.8349832892417908,0.7446140050888062,0.5085857510566711,-0.1088714599609375,0.89617919921875,-0.0838470458984375
9.58,0.8125815987586975,0.8166189193725586,0.5740270614624023,-0.1641387939453125,0.9156036376953125,-0.069366455078125
9.6,0.7123825550079346,0.9525421261787415,0.5394075512886047,-0.1973114013671875,0.9457550048828125,-0.0240936279296875
9.62,0.5256640315055847,0.9355874061584473,0.4814835488796234,-0.2584381103515625,1.02960205078125,0.0598907470703125
9.64,0.17488685250282288,0.9306706786155701,0.441687673330307,-0.28826904296875,1.104827880859375,0.1282196044921875
9.66,-0.2615858018398285,0.6723964810371399,0.40427663922309875,-0.252899169921875,1.1371002197265625,0.17816162109375
9.68,-0.32922157645225525,0.1273030936717987,0.16099607944488525,-0.3860931396484375,1.0517120361328125,0.1051483154296875
9.7,-0.3129800260066986,0.14799372851848602,-0.14749251306056976,-0.6509552001953125,0.9820404052734375,-0.0799713134765625
9.72,-0.5028657913208008,0.23319357633590698,-0.3000580966472626,-0.6404266357421875,1.2874755859375,-0.076904296875
9.74,-1.3281666040420532,0.0007805725326761603,-0.17180638015270233,-0.476593017578125,1.319366455078125,0.0638580322265625
9.76,-2.365985870361328,-0.5730240941047668,-0.17156696319580078,-0.40478515625,1.198944091796875,0.2696533203125
9.78,-2.6309540271759033,-1.9917246103286743,-0.6156706213951111,-0.5667877197265625,1.151397705078125,0.27880859375
9.8,-2.8592922687530518,-2.9913933277130127,-0.6245187520980835,-0.5587005615234375,1.2430572509765625,0.0095672607421875
9.82,-3.1869966983795166,-2.27744460105896,0.21496663987636566,0.0151824951171875,1.412811279296875,0.0584259033203125
9.84,-3.2167742252349854,-0.44320112466812134,0.9682862162590027,0.4476776123046875,1.2796478271484375,-0.056915283203125
9.86,-2.7290799617767334,0.7670979499816895,0.545880913734436,0.45355224609375,1.254669189453125,-0.1895599365234375
9.88,-2.157536029815674,-0.9756887555122375,-0.22569730877876282,-0.011932373046875,1.3434600830078125,-0.1740570068359375
9.9,-2.254413604736328,-2.1795787811279297,-0.22423575818538666,-0.2974090576171875,1.46368408203125,-0.1131744384765625
9.92,-2.392869472503662,-1.4382203817367554,-0.4501040577888489,-0.15130615234375,1.3731231689453125,0.0700836181640625
9.94,-2.1420915126800537,-0.7949607968330383,-0.6714417338371277,-0.20257568359375,1.2469024658203125,0.0724029541015625
9.96,-1.7294524908065796,-1.4559656381607056,-0.7326526641845703,-0.1615753173828125,1.128509521484375,-0.0171051025390625
9.98,-1.4702550172805786,-1.5809160470962524,-0.647119402885437,-0.1354217529296875,0.8981475830078125,-0.19561767578125
10,-1.0430164337158203,-1.6146583557128906,-0.6217389106750488,-0.0028076171875,0.7298431396484375,-0.1035919189453125
10.02,-0.5737378597259521,-1.4230859279632568,-0.5191957950592041,0.037628173828125,0.55572509765625,-0.0487518310546875
10.04,-0.04393922910094261,-0.9960720539093018,-0.3795872628688812,0.103179931640625,0.4361114501953125,0.0048065185546875
10.06,0.5090674757957458,-0.5780324339866638,-0.27763932943344116,0.1644439697265625,0.367523193359375,0.0595703125
10.08,0.9460703730583191,-0.37144118547439575,-0.24240145087242126,0.1794586181640625,0.426605224609375,0.0430450439453125
10.1,1.3276872634887695,-0.15345586836338043,-0.25631648302078247,0.109710693359375,0.4569854736328125,0.030914306640625
10.12,1.7739454507827759,0.1869933158159256,-0.3274513781070709,0.0219268798828125,0.4412841796875,0.0474853515625
10.14,2.292140007019043,0.6506443619728088,-0.3982113003730774,0.05352783203125,0.3927459716796875,0.15606689453125
10.16,2.8104331493377686,1.2065587043762207,-0.42847758531570435,0.05352783203125,0.3927459716796875,0.15606689453125
10.18,2.626680374145508,1.3591631650924683,-0.30749309062957764,-0.0680999755859375,0.88427734375,0.7443695068359375
10.2,0.19616258144378662,0.4938259720802307,-0.022114623337984085,-0.0680999755859375,0.88427734375,0.7443695068359375
10.22,-1.585140347480774,-0.11609198153018951,-0.3431515097618103,-0.3965606689453125,1.687774658203125,1.7577972412109375
10.24,-0.9336240887641907,-1.9886585474014282,-1.034462809562683,-0.952362060546875,2.7763824462890625,1.6500701904296875
10.26,-0.2596941590309143,-2.4092395305633545,-0.9367479681968689,-0.614654541015625,1.60577392578125,0.5522613525390625
10.28,0.15950709581375122,0.21409311890602112,-0.07866951078176498,0.0779876708984375,0.4333038330078125,0.61370849609375
10.3,0.7308459877967834,1.8304190635681152,0.5455996990203857,0.6651611328125,0.3820648193359375,0.05450439453125
10.32,-1.0037400722503662,1.0210248231887817,1.0471522808074951,0.6548004150390625,0.7438201904296875,-0.46832275390625
10.34,-1.5200423002243042,-1.0348223447799683,0.20433636009693146,0.4107666015625,1.7910614013671875,0.2487640380859375
10.36,0.4634334444999695,0.9219645261764526,-0.7127125263214111,-0.8365020751953125,2.5269622802734375,0.8175811767578125
10.38,1.108076572418213,1.5421297550201416,-0.7375496625900269,-0.8976593017578125,0.3817596435546875,-1.0799560546875
10.4,1.4319965839385986,2.8645174503326416,0.14458568394184113,0.1182861328125,0.1226654052734375,-0.451904296875
10.42,1.9418364763259888,2.855175018310547,0.808366596698761,0.46636962890625,0.1744842529296875,-0.425933837890625
10.44,1.9172999858856201,1.7790054082870483,0.46147894859313965,0.0706024169921875,0.88238525390625,-0.656829833984375
10.46,1.0688828229904175,1.5128337144851685,-0.4132533669471741,-0.529876708984375,1.6516571044921875,-0.059051513671875
10.48,1.2659685611724854,2.3227288722991943,-0.40560901165008545,-0.8840484619140625,1.707061767578125,0.5364837646484375
10.5,1.411710262298584,1.941520094871521,-0.24364514648914337,-0.275787353515625,0.9590911865234375,0.09033203125
10.52,1.0368345975875854,1.5041056871414185,-0.01522715575993061,0.0567474365234375,0.7129669189453125,-0.2642669677734375
10.54,1.1338101625442505,1.0700490474700928,0.05439399927854538,0.0632171630859375,0.7230682373046875,-0.2405242919921875
10.56,1.2037900686264038,1.2773481607437134,-0.05829712748527527,-0.1112823486328125,0.8748626708984375,-0.3187713623046875
10.58,0.9241925477981567,1.459981083869934,-0.07814326882362366,-0.32696533203125,0.9587860107421875,-0.14227294921875
10.6,0.6333572268486023,1.2769407033920288,-0.01092588435858488,-0.3794403076171875,0.8758087158203125,0.0349273681640625
10.62,0.6725757122039795,1.1934080123901367,0.04556082561612129,-0.3027496337890625,0.8702392578125,0.0257568359375
10.64,0.7698524594306946,0.962881326675415,0.1126146987080574,-0.1875,0.8729705810546875,-0.112274169921875
10.66,0.7937799096107483,0.8601605296134949,0.3244965970516205,-0.181732177734375,0.860107421875,-0.088043212890625
10.68,0.7423300743103027,0.925454318523407,0.5053425431251526,-0.15069580078125,0.84136962890625,-0.085601806640625
10.7,0.7424041032791138,0.9850460290908813,0.6052286624908447,-0.17156982421875,0.894317626953125,-0.0730133056640625
10.72,0.7421939373016357,0.9796978831291199,0.5930132865905762,-0.1839447021484375,0.9888763427734375,0.0065155029296875
10.74,0.5993992686271667,0.8828368186950684,0.5554248690605164,-0.2595672607421875,1.0269317626953125,0.0773468017578125
10.76,0.4103766083717346,0.9728346467018127,0.5183893442153931,-0.31915283203125,1.0459136962890625,0.10296630859375
10.78,-0.15067419409751892,1.1364736557006836,0.390628457069397,-0.35089111328125,1.0880279541015625,0.1217803955078125
10.8,-0.3914647102355957,0.6248119473457336,0.14203543961048126,-0.4819183349609375,1.1774749755859375,0.1531829833984375
10.82,-0.3092188239097595,0.5942447185516357,-0.16058595478534698,-0.56024169921875,1.0750274658203125,-0.1028900146484375
10.84,-0.4531592130661011,0.8493694067001343,-0.2340007722377777,-0.5129241943359375,1.259918212890625,-0.118927001953125
10.86,-1.2330909967422485,0.6544311046600342,-0.026579679921269417,-0.3311614990234375,1.2874603271484375,0.114776611328125
10.88,-2.0828652381896973,0.16927185654640198,0.0062850601971149445,-0.2591400146484375,1.196685791015625,0.3164215087890625
10.9,-2.626460313796997,-1.058083176612854,-0.2920052111148834,-0.4050140380859375,1.19451904296875,0.2050323486328125
10.92,-2.9891672134399414,-2.5318267345428467,-0.5221609473228455,-0.5115203857421875,1.236968994140625,0.0503082275390625
10.94,-3.5894477367401123,-2.600996732711792,0.2504420578479767,-0.19989013671875,1.3540802001953125,0.014801025390625
10.96,-3.4433746337890625,-0.853054940700531,1.2074865102767944,0.38702392578125,1.3727874755859375,0.1779937744140625
10.98,-3.0590007305145264,0.8525489568710327,1.0975209474563599,0.500457763671875,1.2573699951171875,-0.15289306640625
11,-2.4874579906463623,0.1752019077539444,-0.041029192507267,0.2300567626953125,1.2078704833984375,-0.0737457275390625
11.02,-2.258962631225586,-0.8206387162208557,-0.29902932047843933,-0.1799774169921875,1.4686279296875,0.125396728515625
11.04,-2.251689910888672,-1.1159249544143677,-0.5082781314849854,-0.307891845703125,1.345458984375,0.1708526611328125
11.06,-2.0578665733337402,-0.9711059927940369,-0.5858397483825684,-0.29815673828125,1.176971435546875,0.048919677734375
11.08,-1.807506799697876,-1.4097496271133423,-0.5144494771957397,-0.161712646484375,1.0834503173828125,0.037139892578125
11.1,-1.5352602005004883,-1.7557024955749512,-0.3964730501174927,-0.225677490234375,0.9533233642578125,-0.05657958984375
11.12,-1.1513497829437256,-1.772315263748169,-0.35626116394996643,-0.1774139404296875,0.7202606201171875,-0.0528717041015625
11.14,-0.6837431788444519,-1.3174562454223633,-0.3085376024246216,-0.0665435791015625,0.536529541015625,-0.044189453125
11.16,-0.20005586743354797,-0.9781396389007568,-0.19232577085494995,0.0384979248046875,0.4203033447265625,-0.011688232421875
11.18,0.2937091290950775,-0.6232500076293945,-0.14946512877941132,0.1634979248046875,0.383575439453125,-0.0340118408203125
11.2,0.7603498101234436,-0.23461437225341797,-0.1518731564283371,0.2024078369140625,0.434967041015625,-0.0699310302734375
11.22,1.1848260164260864,0.1426927000284195,-0.1661386340856552,0.20599365234375,0.4938507080078125,-0.08245849609375
11.24,1.6790615320205688,0.5333829522132874,-0.21547476947307587,0.1417083740234375,0.471923828125,-0.0673828125
11.26,2.2987167835235596,0.9992840886116028,-0.2557430863380432,0.0703277587890625,0.423187255859375,-0.007568359375
11.28,2.8535566329956055,1.2195453643798828,-0.3117368519306183,0.046661376953125,0.405120849609375,0.0926055908203125
11.3,2.7416627407073975,1.0815839767456055,-0.23004625737667084,-0.0066986083984375,0.5454254150390625,0.3155364990234375
11.32,0.9736958742141724,0.8023942112922668,-0.0032000544015318155,-0.22625732421875,0.9026641845703125,0.87054443359375
11.34,-0.5128766298294067,0.011455853469669819,-0.14746296405792236,-0.5497894287109375,1.4899749755859375,1.7935943603515625
11.36,-0.4151245057582855,-1.4540646076202393,-0.8306828141212463,-0.7344970703125,2.153961181640625,1.7076416015625
11.38,-0.28256645798683167,-2.4179024696350098,-0.9387115240097046,-0.65557861328125,2.05218505859375,0.540496826171875
11.4,-0.056345030665397644,-0.277127742767334,-0.3422284424304962,-0.094146728515625,1.0807037353515625,0.6007080078125
11.42,0.5518400073051453,1.554734468460083,0.31557101011276245,0.6098480224609375,0.6378631591796875,0.192718505859375
11.44,0.5836831331253052,2.2478222846984863,1.0158350467681885,0.7698974609375,0.474853515625,-0.3062591552734375
11.46,-1.8261457681655884,-0.8677569627761841,0.5827028155326843,0.6983489990234375,1.226593017578125,-0.4857330322265625
11.48,-0.4704359471797943,0.6489852070808411,-0.044492632150650024,-0.12457275390625,2.621612548828125,1.1922607421875
11.5,0.8986645340919495,1.6551098823547363,-0.407878577709198,-1.0045928955078125,1.049713134765625,-0.3283843994140625
11.52,1.3858968019485474,1.0463205575942993,-0.13510136306285858,-0.3202667236328125,0.1641082763671875,-0.85272216796875
11.54,1.8262344598770142,1.498151183128357,0.5305749177932739,0.182098388671875,0.0408935546875,-0.4097137451171875
11.56,1.9433419704437256,2.199913501739502,0.6699583530426025,0.2001495361328125,0.3817901611328125,-0.4614410400390625
11.58,1.1966906785964966,1.2182537317276,0.09042417258024216,-0.28643798828125,1.2123870849609375,-0.217559814453125
11.6,0.8933289051055908,0.7173421382904053,-0.2924867272377014,-0.7040863037109375,1.65020751953125,0.3959197998046875
11.62,0.9121816754341125,0.6809329986572266,-0.30343496799468994,-0.416046142578125,1.4321136474609375,0.2819366455078125
11.64,1.1286908388137817,0.9332855939865112,-0.15483617782592773,-0.0568084716796875,0.8816375732421875,0.047943115234375
11.66,1.0843195915222168,0.9832148551940918,-0.035359323024749756,0.0243072509765625,0.7563323974609375,-0.146759033203125
11.68,1.2637183666229248,0.9103861451148987,0.0017696705181151628,0.0243072509765625,0.7563323974609375,-0.146759033203125
11.7,1.166027307510376,0.9590101838111877,-0.06102846562862396,-0.1914520263671875,0.912353515625,-0.1738128662109375
11.72,0.9999616146087646,0.7822007536888123,-0.059969060122966766,-0.3228759765625,0.96783447265625,0.001556396484375
11.74,0.8676115274429321,0.6336392760276794,0.07210615277290344,-0.2998046875,0.907440185546875,0.0339813232421875
11.76,0.9111496806144714,0.5366048216819763,0.23852841556072235,-0.1846771240234375,0.8692474365234375,0.00970458984375
11.78,1.1363990306854248,0.5215042233467102,0.36372095346450806,-0.1153717041015625,0.880645751953125,-0.04656982421875
11.8,1.1707568168640137,0.5469019412994385,0.5572893619537354,-0.1016845703125,0.8659210205078125,-0.09228515625
11.82,1.0000649690628052,0.5839343070983887,0.668411910533905,-0.0880279541015625,0.9403228759765625,-0.019378662109375
11.84,0.9085043668746948,0.7000595331192017,0.7046604156494141,-0.1670379638671875,0.9459991455078125,0.0843505859375
11.86,0.7469344139099121,0.7608160972595215,0.6629063487052917,-0.2740936279296875,0.993408203125,0.085357666015625
11.88,0.5299927592277527,0.8637443780899048,0.46259668469429016,-0.341094970703125,1.1617431640625,0.16717529296875
11.9,0.0021459751296788454,0.8259642124176025,0.3795148432254791,-0.341094970703125,1.1617431640625,0.16717529296875
11.92,-0.4528353810310364,0.11743102222681046,0.30389970541000366,-0.267242431640625,1.171875,0.178009033203125
11.94,-0.3864254653453827,-0.21807773411273956,0.06547833979129791,-0.444305419921875,1.0135650634765625,-0.0351715087890625
11.96,-0.4866114556789398,0.31815001368522644,-0.21729689836502075,-0.5181884765625,1.255950927734375,-0.1286773681640625
11.98,-1.3579641580581665,0.1747901886701584,-0.044265732169151306,-0.4029083251953125,1.42889404296875,0.11572265625
12,-2.4969727993011475,-0.5068663954734802,-0.0021086910273879766,-0.50213623046875,1.2284088134765625,0.2303314208984375
12.02,-2.7568821907043457,-1.9476701021194458,-0.5002796053886414,-0.50213623046875,1.2284088134765625,0.2303314208984375
12.04,-3.0108723640441895,-3.0990054607391357,-0.4706316888332367,-0.58270263671875,1.289642333984375,-0.03765869140625
12.06,-3.286630153656006,-2.0164432525634766,0.4907156527042389,0.504669189453125,1.268646240234375,-0.020416259765625
12.08,-3.1162734031677246,0.011889150366187096,1.0183587074279785,0.504669189453125,1.268646240234375,-0.020416259765625
12.1,-2.7094194889068604,0.9430415630340576,0.6348651051521301,0.44512939453125,1.1519012451171875,-0.1124420166015625
12.12,-2.0456104278564453,-0.9511338472366333,-0.30809471011161804,0.0507354736328125,1.26263427734375,0.0394287109375
12.14,-2.1095128059387207,-2.3190901279449463,-0.4310459494590759,-0.3867950439453125,1.368408203125,-0.1298675537109375
12.16,-2.357792854309082,-1.9721940755844116,-0.5582630038261414,-0.317626953125,1.2680206298828125,-0.0045013427734375
12.18,-1.8608359098434448,-1.6199846267700195,-0.5598758459091187,-0.21551513671875,1.1053314208984375,0.1638641357421875
12.2,-1.6336687803268433,-2.194375991821289,-0.5028567314147949,-0.1954498291015625,0.973968505859375,-0.0103302001953125
12.22,-1.3854589462280273,-2.2049789428710938,-0.44204771518707275,-0.2309417724609375,0.8184967041015625,-0.0932464599609375
12.24,-0.9238388538360596,-1.9546558856964111,-0.5407521724700928,-0.10003662109375,0.6505279541015625,-0.0734100341796875
12.26,-0.5023587346076965,-1.619349718093872,-0.6286261081695557,-0.0053253173828125,0.5541839599609375,-0.044097900390625
12.28,-0.10759623348712921,-1.2626017332077026,-0.6130325198173523,0.078125,0.493804931640625,-0.0178375244140625
12.3,0.28929147124290466,-0.9868077039718628,-0.6106335520744324,0.1514129638671875,0.492950439453125,-0.016265869140625
12.32,0.6679713726043701,-0.7089548110961914,-0.686434805393219,0.1690521240234375,0.5287322998046875,-0.02423095703125
12.34,1.0861321687698364,-0.3332357406616211,-0.7416592240333557,0.1412200927734375,0.5378570556640625,-0.0444488525390625
12.36,1.654307246208191,0.19929206371307373,-0.7803032398223877,0.1481781005859375,0.43621826171875,-0.006927490234375
12.38,2.4110562801361084,0.8148630857467651,-0.6143457293510437,0.1481781005859375,0.43621826171875,-0.006927490234375
12.4,2.8363263607025146,1.445620059967041,-0.16063335537910461,0.178070068359375,0.450958251953125,0.0522918701171875
12.42,2.1404731273651123,1.4133981466293335,0.05739671364426613,0.1778411865234375,0.6508636474609375,0.2892303466796875
12.44,0.15007232129573822,-0.4408375918865204,-0.11451539397239685,-0.04156494140625,1.052581787109375,0.775146484375
12.46,-1.1668338775634766,-1.287469506263733,-0.5191254615783691,-0.4967193603515625,1.85601806640625,1.6362762451171875
12.48,-0.737982451915741,-2.0220422744750977,-1.114871621131897,-0.8933563232421875,2.6071929931640625,1.5849151611328125
12.5,-0.3675180971622467,-1.6373423337936401,-0.8007880449295044,-0.5097198486328125,1.3202972412109375,0.63397216796875
12.52,0.3125632405281067,-0.1987093687057495,-0.012613263912498951,0.1317138671875,0.19744873046875,0.485565185546875
12.54,1.2633676528930664,0.7627032399177551,-0.006955377757549286,0.4983062744140625,0.0826873779296875,0.0276947021484375
12.56,0.8753906488418579,1.6189470291137695,-0.19323284924030304,0.22369384765625,0.7285308837890625,-0.3736724853515625
12.58,-1.430185079574585,-0.6433390378952026,0.12835584580898285,-0.15020751953125,1.2700958251953125,-0.2568817138671875
12.6,-0.3996318280696869,-0.23142044246196747,-0.5782127380371094,-0.150115966796875,2.8656005859375,1.1397857666015625
12.62,0.9071272611618042,0.3706377148628235,-0.42055946588516235,-0.8616943359375,1.766693115234375,-0.2318572998046875
12.64,0.9292003512382507,0.8887309432029724,0.19571171700954437,0.1905364990234375,0.2091827392578125,-0.798583984375
12.66,1.3610843420028687,2.084453582763672,0.8887943029403687,0.6779327392578125,-0.0573883056640625,-0.170806884765625
12.68,2.163335084915161,2.5672411918640137,1.1767421960830688,0.4345855712890625,0.143524169921875,-0.5132598876953125
12.7,2.2457528114318848,1.754299521446228,0.4690106213092804,-0.087127685546875,1.11883544921875,-0.6812744140625
12.72,1.465874195098877,0.50987708568573,-0.5442667603492737,-0.6715087890625,1.753173828125,-0.1844482421875
12.74,1.2700461149215698,0.23652759194374084,-0.32788094878196716,-0.2314605712890625,0.9655914306640625,0.0610198974609375
12.76,1.1726406812667847,0.11253479868173599,-0.3330381512641907,-0.2314605712890625,0.9655914306640625,0.0610198974609375
12.78,1.177310824394226,0.34728074073791504,-0.1490885466337204,-0.02655029296875,0.73046875,-0.139801025390625
12.8,1.4176722764968872,0.859106183052063,-0.08524219691753387,0.051483154296875,0.7311248779296875,-0.10595703125
12.82,1.2688401937484741,0.9101898670196533,-0.06295046955347061,-0.05419921875,0.8535003662109375,-0.16021728515625
12.84,1.094757318496704,0.5876792073249817,0.031740620732307434,-0.171173095703125,0.92694091796875,0.0280914306640625
12.86,1.132409691810608,0.4438624083995819,0.1673130989074707,-0.1860809326171875,0.8927001953125,-0.00799560546875
12.88,1.250715732574463,0.44928592443466187,0.29233598709106445,-0.19317626953125,0.8664093017578125,-0.0810089111328125
12.9,1.1694318056106567,0.4189232289791107,0.425739586353302,-0.1288299560546875,0.869964599609375,-0.084014892578125
12.92,0.9829240441322327,0.6876356601715088,0.5813725590705872,-0.097900390625,0.91314697265625,0.0419769287109375
12.94,0.7946297526359558,0.797457754611969,0.6868561506271362,-0.1367950439453125,0.937164306640625,0.0551605224609375
12.96,0.6639246940612793,0.7282152771949768,0.6683993935585022,-0.17889404296875,0.9572601318359375,0.040435791015625
12.98,0.5895865559577942,0.712814211845398,0.5353587865829468,-0.208343505859375,1.01971435546875,0.0750579833984375
13,0.2858501374721527,0.8889740705490112,0.32349124550819397,-0.2429046630859375,1.11614990234375,0.15869140625
13.02,-0.2325725257396698,0.43446677923202515,0.2379278689622879,-0.28985595703125,1.21185302734375,0.191436767578125
13.04,-0.46902766823768616,-0.14747308194637299,0.17469191551208496,-0.3779296875,1.1344451904296875,0.1035308837890625
13.06,-0.48690226674079895,0.06966296583414078,-0.08225253224372864,-0.5223846435546875,1.0952301025390625,-0.0742645263671875
13.08,-0.8018807172775269,0.27117183804512024,-0.180198535323143,-0.5324554443359375,1.379425048828125,0.0066986083984375
13.1,-1.78948974609375,-0.04102759435772896,-0.06838997453451157,-0.28851318359375,1.439544677734375,0.108306884765625
13.12,-2.7439770698547363,-0.9173356890678406,-0.05477349832653999,-0.329803466796875,1.261016845703125,0.3046112060546875
13.14,-2.955761671066284,-2.5670878887176514,-0.4299548268318176,-0.4805145263671875,1.1311798095703125,0.2370147705078125
13.16,-3.2311148643493652,-2.9207651615142822,-0.04847805202007294,-0.357818603515625,1.262054443359375,-0.01849365234375
13.18,-3.1145575046539307,-1.3447387218475342,0.8971539735794067,0.29058837890625,1.4248504638671875,0.0683441162109375
13.2,-2.991279125213623,0.6898359656333923,1.0820140838623047,0.594268798828125,1.2698211669921875,-0.248260498046875
13.22,-2.4674549102783203,0.7386559247970581,0.34130433201789856,0.3635406494140625,1.218780517578125,-0.087249755859375
13.24,-1.9554742574691772,-1.268479824066162,-0.4159016013145447,-0.076416015625,1.355560302734375,0.08331298828125
13.26,-2.19856333732605,-2.1574859619140625,-0.4731888473033905,-0.39898681640625,1.40032958984375,0.0438995361328125
13.28,-2.156979560852051,-1.6313800811767578,-0.5772108435630798,-0.3380126953125,1.222900390625,0.04840087890625
13.3,-1.7364606857299805,-1.6561596393585205,-0.5318273901939392,-0.2661590576171875,1.000091552734375,0.025115966796875
13.32,-1.453770637512207,-2.159531593322754,-0.5629048943519592,-0.1399383544921875,0.865081787109375,-0.06597900390625
13.34,-1.2304589748382568,-2.0651090145111084,-0.5891005396842957,-0.153656005859375,0.766754150390625,-0.1570587158203125
13.36,-0.8552667498588562,-1.8905165195465088,-0.6917456984519958,-0.0296630859375,0.6276092529296875,-0.05499267578125
13.38,-0.491004079580307,-1.6615533828735352,-0.6978134512901306,0.0344390869140625,0.573944091796875,-0.0236968994140625
13.4,-0.07428168505430222,-1.3929363489151,-0.6329489350318909,0.0931396484375,0.507354736328125,-0.0239715576171875
13.42,0.3924945592880249,-1.1093671321868896,-0.674774706363678,0.1491851806640625,0.4724578857421875,-0.051177978515625
13.44,0.843481719493866,-0.7719696760177612,-0.7183962464332581,0.16534423828125,0.484649658203125,-0.07989501953125
13.46,1.362924575805664,-0.1867285966873169,-0.7494611740112305,0.16387939453125,0.500152587890625,-0.0979766845703125
13.48,2.0392258167266846,0.5376200675964355,-0.7175003290176392,0.168670654296875,0.465057373046875,-0.0550384521484375
13.5,2.7689740657806396,1.2977170944213867,-0.5435658097267151,0.1829986572265625,0.425048828125,0.0287322998046875
13.52,2.9841675758361816,1.7540383338928223,-0.2503003776073456,0.19952392578125,0.5199737548828125,0.1897430419921875
13.54,1.4461731910705566,0.8915179371833801,-0.10415250062942505,0.1209716796875,0.8176116943359375,0.476318359375
13.56,-1.0654833316802979,-0.6381738185882568,-0.17287564277648926,-0.1627349853515625,1.3319854736328125,1.34307861328125
13.58,-1.1976523399353027,-1.2229416370391846,-0.9447430968284607,-0.7254486083984375,2.440277099609375,2.0425567626953125
13.6,-0.5840719938278198,-2.515181541442871,-1.206395149230957,-0.8337249755859375,2.3548431396484375,0.7908172607421875
13.62,-0.19355934858322144,-0.6176288723945618,-0.4081992208957672,-0.192108154296875,0.7245330810546875,0.5283050537109375
13.64,0.8434398770332336,0.7897090315818787,0.09358907490968704,0.494415283203125,0.051849365234375,0.27532958984375
13.66,1.2812243700027466,2.0419909954071045,0.1995019167661667,0.5838470458984375,0.3707427978515625,-0.2747650146484375
13.68,-0.8679465651512146,0.5502194762229919,0.4962846040725708,0.243316650390625,0.8603057861328125,-0.55621337890625
13.7,-0.8462828397750854,-0.21624921262264252,-0.12221778929233551,0.0958404541015625,2.3463897705078125,0.6401824951171875
13.72,0.6676976084709167,0.3716451823711395,-0.5104443430900574,-0.3987579345703125,0.4390411376953125,-1.0059356689453125
13.74,1.115081548690796,0.43664124608039856,-0.31182608008384705,-0.3987579345703125,0.4390411376953125,-1.0059356689453125
13.76,1.3020087480545044,1.4353317022323608,0.3223729729652405,0.36297607421875,0.0694122314453125,-0.3561859130859375
13.78,1.703726887702942,2.5598082542419434,1.1008466482162476,0.5214080810546875,0.013885498046875,-0.3444061279296875
13.8,2.1901910305023193,2.4366538524627686,0.8212552070617676,0.2923431396484375,0.89739990234375,-0.3468780517578125
13.82,1.9567253589630127,0.921794056892395,-0.4884096384048462,-0.329986572265625,1.5600738525390625,-0.213836669921875
13.84,1.2858258485794067,0.28838518261909485,-0.6356022953987122,-0.8475189208984375,1.7377166748046875,0.0497589111328125
13.86,1.006893277168274,0.46988600492477417,-0.36538463830947876,-0.523162841796875,1.0478363037109375,0.1825408935546875
13.88,1.161264181137085,0.5543779730796814,-0.28831806778907776,-0.106658935546875,0.6636199951171875,-0.0735626220703125
13.9,1.192257046699524,0.8591054081916809,-0.172427698969841,0.0377655029296875,0.64776611328125,-0.1683349609375
13.92,1.1034892797470093,0.8182269334793091,-0.10158388316631317,0.02874755859375,0.8660736083984375,-0.0868988037109375
13.94,1.0881415605545044,0.8018855452537537,0.0537729486823082,-0.126129150390625,0.9364471435546875,0.072357177734375
13.96,1.0490654706954956,0.5598846077919006,0.19780682027339935,-0.1700439453125,0.8795928955078125,0.0260772705078125
13.98,0.9528180360794067,0.5053287148475647,0.2941405475139618,-0.221221923828125,0.8748931884765625,-0.016265869140625
14,0.9447124600410461,0.5521758198738098,0.41915491223335266,-0.172393798828125,0.8703460693359375,-0.0354156494140625
14.02,0.9721899032592773,0.6478956937789917,0.48030295968055725,-0.1314697265625,0.9034423828125,-0.0224456787109375
14.04,0.8947571516036987,0.8041049838066101,0.5204147100448608,-0.13702392578125,0.9555511474609375,-0.02862548828125
14.06,0.7351248860359192,0.7452017068862915,0.5784463286399841,-0.153167724609375,0.9921112060546875,0.0472564697265625
14.08,0.4490952491760254,0.7258669137954712,0.5316900014877319,-0.21014404296875,1.1398468017578125,0.1502227783203125
14.1,0.12471742928028107,0.8659590482711792,0.3640301525592804,-0.21014404296875,1.1398468017578125,0.1502227783203125
14.12,-0.2757258415222168,0.3752116858959198,0.22697696089744568,-0.280853271484375,1.191986083984375,0.090728759765625
14.14,-0.23399385809898376,0.023736221715807915,0.07838508486747742,-0.425018310546875,1.1207275390625,-0.0512847900390625
14.16,-0.16757328808307648,0.4786078631877899,-0.16440199315547943,-0.4970550537109375,1.052459716796875,-0.18731689453125
14.18,-0.534236490726471,0.4728407859802246,-0.2154337465763092,-0.4501495361328125,1.2797393798828125,0.011138916015625
14.2,-1.2703038454055786,0.2113199681043625,-0.11429834365844727,-0.32879638671875,1.307403564453125,0.1347503662109375
14.22,-2.1978416442871094,-0.543639063835144,0.021575067192316055,-0.3455963134765625,1.318695068359375,0.2685089111328125
14.24,-2.7636098861694336,-1.7835853099822998,-0.1307380348443985,-0.3384246826171875,1.1830291748046875,0.3512725830078125
14.26,-3.253507137298584,-2.365793466567993,-0.08379503339529037,-0.316162109375,1.18499755859375,0.15185546875
14.28,-3.36275315284729,-1.61696195602417,0.5023054480552673,0.0780487060546875,1.2761993408203125,0.135223388671875
14.3,-3.137913942337036,-0.01073919702321291,1.1158373355865479,0.4042510986328125,1.2164306640625,-0.0535736083984375
14.32,-2.696014881134033,0.7576208710670471,0.7856133580207825,0.4680633544921875,1.314666748046875,-0.1830596923828125
14.34,-2.062129259109497,-0.3894399106502533,-0.0948072001338005,0.078887939453125,1.4474639892578125,-0.0572967529296875
14.36,-2.036250352859497,-1.892156720161438,-0.25029611587524414,-0.1875,1.541351318359375,-0.0263671875
14.38,-2.291574001312256,-1.9207048416137695,-0.32296445965766907,-0.2418212890625,1.3253631591796875,0.0770111083984375
14.4,-2.0335514545440674,-1.526996374130249,-0.3241594433784485,-0.296722412109375,1.128326416015625,0.08636474609375
14.42,-1.6435881853103638,-1.9423307180404663,-0.40669772028923035,-0.1915283203125,0.949249267578125,0.0731353759765625
14.44,-1.335412859916687,-2.0061380863189697,-0.45410171151161194,-0.1276092529296875,0.7962188720703125,-0.08819580078125
14.46,-0.9448993802070618,-1.748310923576355,-0.5578925609588623,-0.0283203125,0.678985595703125,-0.0959320068359375
14.48,-0.6690422296524048,-1.6729234457015991,-0.5809280872344971,0.0634765625,0.5756378173828125,-0.0495452880859375
14.5,-0.3953377306461334,-1.5526024103164673,-0.48254162073135376,0.1059417724609375,0.535400390625,-0.015838623046875
14.52,0.015477759763598442,-1.2512649297714233,-0.47776976227760315,0.1559295654296875,0.516693115234375,-0.034423828125
14.54,0.5319288969039917,-0.9504587650299072,-0.5562866926193237,0.177978515625,0.4936370849609375,-0.0546722412109375
14.56,1.0250961780548096,-0.5793773531913757,-0.6041615009307861,0.18096923828125,0.461944580078125,-0.0846099853515625
14.58,1.5823568105697632,-0.09322981536388397,-0.675599217414856,0.1798248291015625,0.4326934814453125,-0.0729217529296875
14.6,2.304760694503784,0.5165017247200012,-0.743894100189209,0.155487060546875,0.4084014892578125,-0.022308349609375
14.62,3.017399787902832,1.0814037322998047,-0.6975063681602478,0.1536407470703125,0.3932647705078125,0.0484619140625
14.64,2.99649977684021,1.390175700187683,-0.4824734330177307,0.14794921875,0.5251312255859375,0.1925048828125
14.66,0.5767884850502014,0.5437551736831665,-0.2562810480594635,0.0217132568359375,0.86004638671875,0.5714569091796875
14.68,-1.5267114639282227,-0.36540406942367554,-0.2612222731113434,-0.282470703125,1.5991668701171875,1.702423095703125
14.7,-1.1180789470672607,-1.70496666431427,-0.9222662448883057,-0.62603759765625,2.776947021484375,1.8679656982421875
14.72,-0.6024818420410156,-2.947758436203003,-1.0962135791778564,-0.5001983642578125,1.945404052734375,0.5754852294921875
14.74,-0.258482962846756,-0.5279772877693176,-0.20761631429195404,0.0265350341796875,0.5574798583984375,0.5687255859375
14.76,0.71728515625,0.9030824303627014,0.4492254853248596,0.59698486328125,0.1796722412109375,0.3277587890625
14.78,0.4606752097606659,1.6880384683609009,0.477479487657547,0.7856292724609375,0.6673126220703125,-0.2467498779296875
14.8,-1.2628393173217773,-0.3206315338611603,0.5796332955360413,0.3376922607421875,1.053802490234375,-0.1472320556640625
14.82,-0.47464480996131897,-0.07118203490972519,-0.2797546982765198,0.0706329345703125,2.473388671875,0.936553955078125
14.84,0.6833404898643494,0.5584465265274048,-0.5109556913375854,-0.9713897705078125,1.710968017578125,-0.2615509033203125
14.86,1.044111728668213,1.3578691482543945,-0.08663635700941086,-0.216705322265625,0.275970458984375,-0.7338714599609375
14.88,1.6415594816207886,2.5654008388519287,0.6852020621299744,0.4665679931640625,0.0346832275390625,-0.3001861572265625
14.9,2.154845952987671,2.326597213745117,0.7656270861625671,0.4033203125,0.3212738037109375,-0.55352783203125
14.92,1.7416714429855347,1.371727705001831,0.014546984806656837,-0.1056060791015625,1.1273956298828125,-0.60546875
14.94,0.9744056463241577,1.2218329906463623,-0.5380797386169434,-0.747955322265625,1.7785491943359375,0.06256103515625
14.96,1.213334083557129,1.8596603870391846,-0.5329741835594177,-0.7181243896484375,1.593414306640625,0.5154266357421875
14.98,1.403035283088684,1.294405460357666,-0.3125579059123993,-0.1579437255859375,0.916046142578125,0.1154327392578125
15,1.1159614324569702,0.7730703949928284,0.09799154102802277,0.0907745361328125,0.6678466796875,-0.217193603515625
15.02,1.1405357122421265,0.4840436279773712,0.2124273031949997,0.1468658447265625,0.685028076171875,-0.2147064208984375
15.04,1.2463388442993164,0.7602326273918152,-0.04381592199206352,-0.099456787109375,0.9360504150390625,-0.1839447021484375
15.06,1.1039191484451294,1.1533716917037964,-0.0880638137459755,-0.3072052001953125,1.0545806884765625,0.00872802734375
15.08,0.8779448866844177,1.1111829280853271,0.011291536502540112,-0.2787933349609375,0.9336395263671875,0.1504058837890625
15.1,0.889357328414917,0.6057005524635315,0.19932721555233002,-0.172607421875,0.869110107421875,0.0521392822265625
15.12,1.055971384048462,0.43450218439102173,0.3860132098197937,-0.0807952880859375,0.8251800537109375,-0.1163330078125
15.14,1.2039730548858643,0.39527514576911926,0.4731755554676056,-0.08966064453125,0.835662841796875,-0.1556243896484375
15.16,1.1257776021957397,0.4744243025779724,0.5865330100059509,-0.146240234375,0.9079132080078125,-0.0576629638671875
15.18,0.9996973872184753,0.8054168820381165,0.6745970845222473,-0.1536407470703125,0.962890625,0.0288238525390625
15.2,0.8201854228973389,0.93553227186203,0.6843532919883728,-0.17608642578125,0.9418792724609375,0.095489501953125
15.22,0.47678786516189575,0.8412859439849854,0.6403623819351196,-0.2257232666015625,0.993011474609375,0.1544952392578125
15.24,0.03639529272913933,0.8594114184379578,0.5259769558906555,-0.225494384765625,1.087249755859375,0.1587066650390625
15.26,0.10283796489238739,0.3560563921928406,0.2528753876686096,-0.1932373046875,1.209075927734375,0.1691436767578125
15.28,0.07464281469583511,-0.2708283066749573,0.23788926005363464,-0.2056884765625,1.1499786376953125,-0.099822998046875
15.3,-0.19465284049510956,-0.2680317163467407,0.26709163188934326,-0.255523681640625,1.0268096923828125,-0.1175689697265625
15.32,-0.6081104874610901,0.16388347744941711,0.09900354593992233,-0.460113525390625,1.184844970703125,0.1330108642578125
15.34,-1.0999137163162231,0.01992657035589218,-0.07948337495326996,-0.5988311767578125,1.2852325439453125,0.181243896484375
15.36,-1.638048529624939,-0.6727262139320374,-0.12609775364398956,-0.545440673828125,1.411865234375,0.0512237548828125
15.38,-2.3082475662231445,-1.9777984619140625,-0.13458684086799622,-0.4177093505859375,1.342315673828125,0.0353851318359375
15.4,-2.8834245204925537,-2.6503257751464844,0.07026483863592148,-0.3202362060546875,1.211151123046875,0.0625152587890625
15.42,-3.251769781112671,-2.3819634914398193,0.40109097957611084,0.063140869140625,1.2032623291015625,0.172088623046875
15.44,-3.022736072540283,-0.6751619577407837,0.7128230333328247,0.316131591796875,1.1920166015625,0.196990966796875
15.46,-2.6338696479797363,1.1238797903060913,0.6154618263244629,0.3458709716796875,1.1822662353515625,-0.129302978515625
15.48,-2.1605682373046875,0.39929839968681335,-0.00729359919205308,0.203948974609375,1.317840576171875,-0.12603759765625
15.5,-1.6956520080566406,-2.1369662284851074,-0.3782876431941986,-0.058319091796875,1.3342132568359375,-0.1132965087890625
15.52,-1.8723026514053345,-3.450857639312744,-0.65153568983078,-0.26416015625,1.25811767578125,-0.1526947021484375
15.54,-2.229032516479492,-2.1928741931915283,-0.6369258761405945,-0.4796905517578125,1.3016204833984375,0.0156097412109375
15.56,-1.7503548860549927,-2.2305850982666016,-0.7518537640571594,-0.426849365234375,1.12286376953125,0.22943115234375
15.58,-1.5920687913894653,-2.2647931575775146,-0.9307639002799988,-0.3689117431640625,0.9084320068359375,-0.0865631103515625
15.6,-1.1965891122817993,-2.028008222579956,-1.1775078773498535,-0.1134796142578125,0.8360443115234375,-0.10595703125
15.62,-0.7459178566932678,-2.0285730361938477,-1.2508635520935059,0.0103302001953125,0.7091217041015625,-0.035797119140625
15.64,-0.47072410583496094,-2.103518009185791,-1.146667718887329,0.0782623291015625,0.6467132568359375,0.0015411376953125
15.66,-0.2037523239850998,-2.1099178791046143,-0.9529560208320618,0.079437255859375,0.5716705322265625,-0.0084686279296875
15.68,0.12286227196455002,-1.7771193981170654,-0.8354509472846985,0.098175048828125,0.5206146240234375,-0.06396484375
15.7,0.5938543081283569,-1.1302937269210815,-0.7947586178779602,0.1093292236328125,0.511749267578125,-0.10614013671875
15.72,1.2071666717529297,-0.527434229850769,-0.8099107146263123,0.159942626953125,0.4691162109375,-0.12371826171875
15.74,1.784786343574524,-0.04962800815701485,-0.7040175199508667,0.165008544921875,0.448822021484375,-0.0776519775390625
15.76,2.19647479057312,0.3409040570259094,-0.34805038571357727,0.1995391845703125,0.46978759765625,0.03192138671875
15.78,2.203758955001831,0.48741281032562256,0.0886041671037674,0.18768310546875,0.8652496337890625,0.4719085693359375
15.8,1.4554308652877808,0.03569354861974716,0.06292197108268738,0.18768310546875,0.8652496337890625,0.4719085693359375
15.82,0.08721772581338882,-1.7677384614944458,-0.22487013041973114,-0.1389923095703125,1.290191650390625,0.8746795654296875
15.84,-0.9758573174476624,-1.6038604974746704,-0.4606914520263672,-0.4514923095703125,1.747955322265625,1.3574981689453125
15.86,-1.030719518661499,-1.9765632152557373,-0.9015090465545654,-0.4799957275390625,1.37213134765625,0.543426513671875
15.88,-0.5304521322250366,-2.1556293964385986,-0.7849909663200378,-0.4799957275390625,1.37213134765625,0.543426513671875
15.9,0.21940132975578308,-1.20110023021698,-0.25267112255096436,-0.138946533203125,0.3907623291015625,0.4937591552734375
15.92,0.9378004670143127,0.08664035052061081,-0.1714377999305725,0.2818603515625,0.147552490234375,0.0693206787109375
15.94,0.8710629940032959,0.8435869216918945,0.23147957026958466,0.2271881103515625,0.5454864501953125,-0.353759765625
15.96,-0.5056610703468323,-0.720713198184967,1.2902778387069702,0.2343292236328125,0.9063568115234375,-0.33514404296875
15.98,-0.548577070236206,-1.500857949256897,0.1806028038263321,0.6654052734375,2.2611846923828125,0.7400360107421875
16,0.5577202439308167,-0.6121928095817566,-0.37296557426452637,-0.6048583984375,2.619354248046875,0.209503173828125
16.02,0.7880128622055054,-0.13332822918891907,-0.164378821849823,-0.5255279541015625,0.5558319091796875,-0.6288909912109375
16.04,1.2035053968429565,0.40059003233909607,0.4822680950164795,0.0638885498046875,0.055419921875,-0.3257293701171875
16.06,1.58633291721344,0.18419326841831207,0.8318567276000977,0.2310333251953125,0.1566925048828125,-0.4572906494140625
16.08,1.9258897304534912,-0.7314403653144836,0.14270202815532684,-0.12884521484375,0.8749847412109375,-0.6284332275390625
16.1,1.76683509349823,-0.9715397953987122,-0.9904415607452393,-0.633941650390625,1.6555328369140625,-0.4052581787109375
16.12,1.3935600519180298,-0.43083420395851135,-0.8739429116249084,-0.82293701171875,1.712646484375,0.1376190185546875
16.14,1.036852240562439,-0.260649174451828,-0.6498736143112183,0.2019195556640625,0.7995758056640625,0.13861083984375
16.16,1.1899282932281494,-0.3454729914665222,-0.4420490562915802,0.1857147216796875,0.780426025390625,-0.122344970703125
16.18,1.3991910219192505,-0.4879685938358307,-0.36319470405578613,0.1857147216796875,0.780426025390625,-0.122344970703125
16.2,1.517221450805664,-0.3728334903717041,-0.2527550160884857,0.07275390625,0.8252410888671875,-0.1493682861328125
16.22,1.441158413887024,-0.021872010082006454,-0.0663561224937439,0.0006866455078125,0.8617095947265625,-0.043853759765625
16.24,1.2037674188613892,0.2794838547706604,0.09207773208618164,-0.0404815673828125,0.8809967041015625,0.0723724365234375
16.26,0.9501825571060181,0.3038800060749054,0.2230573147535324,-0.1124420166015625,0.922698974609375,0.0894775390625
16.28,0.9285598397254944,0.1668339967727661,0.320615291595459,-0.124908447265625,0.940704345703125,-0.0233001708984375
16.3,1.067427158355713,0.09949330240488052,0.43182995915412903,-0.088134765625,0.9405364990234375,-0.1433563232421875
16.32,1.0454005002975464,-0.043308325111866,0.5170385837554932,-0.043121337890625,0.8916168212890625,-0.2037353515625
16.34,1.0475701093673706,0.009351690299808979,0.5051100254058838,-0.0657806396484375,0.9338836669921875,-0.109100341796875
16.36,0.9487727284431458,0.4572594165802002,0.484576016664505,-0.1077728271484375,1.0170745849609375,0.042236328125
16.38,0.4410841763019562,0.8839631080627441,0.4990313649177551,-0.115631103515625,1.101531982421875,0.203399658203125
16.4,-0.019655194133520126,0.45138370990753174,0.5028380751609802,-0.0284576416015625,1.2801361083984375,0.3206024169921875
16.42,-0.035906337201595306,-0.7158084511756897,0.5111636519432068,-0.017547607421875,1.23974609375,0.13885498046875
16.44,-0.12580826878547668,-1.2713435888290405,0.45168036222457886,-0.2559814453125,1.0124359130859375,-0.19439697265625
16.46,-0.12538588047027588,-0.51875901222229,0.21066829562187195,-0.514617919921875,1.1638336181640625,-0.1217803955078125
16.48,-0.4925899803638458,-0.19223682582378387,0.087381511926651,-0.6880340576171875,1.461700439453125,0.04693603515625
16.5,-1.3888278007507324,-0.9776365756988525,0.4142264723777771,-0.5195159912109375,1.3841552734375,0.240966796875
16.52,-2.406261444091797,-1.8867995738983154,0.5217223167419434,-0.294281005859375,1.1897735595703125,0.309417724609375
16.54,-2.5263454914093018,-3.002481698989868,0.2175416499376297,-0.384185791015625,1.1885223388671875,0.255584716796875
16.56,-2.716815233230591,-3.9591450691223145,0.3186485469341278,-0.330841064453125,1.0407867431640625,0.010833740234375
16.58,-3.103667736053467,-2.720316171646118,0.7115569710731506,0.108062744140625,1.1246795654296875,0.1015625
16.6,-3.0165581703186035,0.034084998071193695,0.7286688089370728,0.32989501953125,1.1742706298828125,0.0341949462890625
16.62,-2.3602449893951416,0.8064789175987244,-0.03969814255833626,0.139007568359375,1.283172607421875,-0.1395111083984375
16.64,-1.6886025667190552,-1.3359204530715942,-0.8972069621086121,-0.1230010986328125,1.2919769287109375,-0.23565673828125
16.66,-1.4986320734024048,-3.8427867889404297,-1.2981953620910645,-0.16845703125,1.33038330078125,-0.1556243896484375
16.68,-2.2416932582855225,-3.766547918319702,-1.3685590028762817,-0.3486175537109375,1.2687835693359375,-0.1152801513671875
16.7,-2.137140989303589,-2.7809438705444336,-1.0938388109207153,-0.4365997314453125,1.1681060791015625,0.1222991943359375
16.72,-1.8416661024093628,-2.6238367557525635,-1.1086113452911377,-0.325286865234375,1.0195159912109375,-0.0316162109375
16.74,-1.666409969329834,-2.508730411529541,-1.2158459424972534,-0.1961517333984375,0.92230224609375,-0.0871124267578125
16.76,-1.281395673751831,-2.2968907356262207,-1.275113582611084,-0.032379150390625,0.8383331298828125,-0.030303955078125
16.78,-0.9073411226272583,-2.0616464614868164,-1.1561133861541748,0.07244873046875,0.701629638671875,-0.0171966552734375
16.8,-0.5269588828086853,-1.9891277551651,-0.9962539076805115,0.133880615234375,0.6145477294921875,-0.053955078125
16.82,-0.15313708782196045,-1.7433565855026245,-0.8158823251724243,0.15386962890625,0.5591583251953125,-0.0872955322265625
16.84,0.22957779467105865,-1.2680753469467163,-0.7733625173568726,0.192626953125,0.56903076171875,-0.111175537109375
16.86,0.6431022882461548,-0.6482229828834534,-0.718252956867218,0.2062225341796875,0.5439605712890625,-0.0608062744140625
16.88,1.172399640083313,-0.13567288219928741,-0.6155326962471008,0.265533447265625,0.55548095703125,-0.024749755859375
16.9,1.7183903455734253,0.2875811755657196,-0.4083704352378845,0.294036865234375,0.5240936279296875,0.0040283203125
16.92,2.1087803840637207,0.5332058668136597,-0.062319565564394,0.28436279296875,0.5459747314453125,0.0915374755859375
16.94,2.105670690536499,0.5166015625,0.23514381051063538,0.2803192138671875,0.661529541015625,0.246307373046875
16.96,1.3135895729064941,-0.29272666573524475,0.04260924458503723,0.171478271484375,0.873046875,0.4903564453125
16.98,-0.7132685780525208,-2.005857467651367,0.10345768183469772,-0.142333984375,1.36041259765625,0.9017486572265625
17,-1.4372060298919678,-0.44801080226898193,-0.7483442425727844,-0.3437652587890625,2.0862884521484375,1.7841644287109375
17.02,-0.8902867436408997,-1.5722086429595947,-1.2356185913085938,-0.271942138671875,0.8340301513671875,0.6066131591796875
17.04,0.01619681343436241,-1.4365828037261963,-0.7758550047874451,-0.271942138671875,0.8340301513671875,0.6066131591796875
17.06,0.947633683681488,-0.1784946471452713,-0.18628358840942383,0.28350830078125,-0.014404296875,0.2802886962890625
17.08,1.3746377229690552,1.2999626398086548,-0.07490459829568863,0.4682464599609375,0.325042724609375,-0.2509765625
17.1,0.30146902799606323,1.404765248298645,0.44497159123420715,0.149749755859375,0.9131622314453125,-0.5117034912109375
17.12,-0.9555872082710266,-1.3476532697677612,0.6028280854225159,0.1843414306640625,1.5537872314453125,0.105255126953125
17.14,0.08949046581983566,-0.4641708731651306,-0.22049269080162048,0.2898712158203125,2.92230224609375,1.1946563720703125
17.16,0.7898805141448975,0.24584518373012543,-0.33694660663604736,-0.6249542236328125,1.11920166015625,-0.6183624267578125
17.18,1.2655903100967407,1.3024492263793945,0.05571998655796051,0.0634765625,0.10516357421875,-0.4368896484375
17.2,2.0063483715057373,2.052638530731201,0.4792318344116211,0.3274078369140625,-0.109619140625,-0.3140411376953125
17.22,2.216158390045166,2.096867322921753,0.7713209390640259,0.0040283203125,0.3629302978515625,-0.714019775390625
17.24,1.9249382019042969,1.1549564599990845,-0.08373165130615234,-0.305511474609375,1.305145263671875,-0.5075531005859375
17.26,1.3996431827545166,0.3928580582141876,-1.030638575553894,-0.6572418212890625,1.8255157470703125,-0.039520263671875
17.28,1.001137614250183,0.5358898043632507,-0.8016780614852905,-0.6026763916015625,1.600555419921875,0.5283203125
17.3,0.859173595905304,0.3536105453968048,-0.43838241696357727,0.1209869384765625,0.8050537109375,0.17376708984375
17.32,1.072116494178772,0.5515452027320862,-0.18273305892944336,0.2439422607421875,0.65478515625,-0.1847991943359375
17.34,1.312325358390808,0.634943962097168,-0.13286644220352173,0.1217041015625,0.69940185546875,-0.3339080810546875
17.36,1.37308669090271,0.8614766597747803,-0.19177289307117462,-0.037994384765625,0.8717041015625,-0.29901123046875
17.38,1.2578219175338745,0.9361051321029663,-0.17017892003059387,-0.1788482666015625,0.9824676513671875,-0.0518951416015625
17.4,1.0438560247421265,0.6320759654045105,-0.04093118757009506,-0.2072906494140625,0.965484619140625,0.0086212158203125
17.42,0.9968001246452332,0.5562294125556946,0.08267597109079361,-0.1661529541015625,0.9062347412109375,-0.04266357421875
17.44,1.0548533201217651,0.5794532299041748,0.18379166722297668,-0.1288604736328125,0.8840789794921875,-0.116607666015625
17.46,1.1157132387161255,0.7172332406044006,0.3374086618423462,-0.0992889404296875,0.8998565673828125,-0.1410980224609375
17.48,1.0836341381072998,1.0357356071472168,0.4561294615268707,-0.06298828125,0.9306640625,-0.06134033203125
17.5,0.8268026113510132,1.225526213645935,0.5085968971252441,-0.062347412109375,0.9952850341796875,0.0395355224609375
17.52,0.5124662518501282,1.1371750831604004,0.4545994699001312,-0.1230926513671875,1.1181640625,0.1575775146484375
17.54,0.1477726846933365,0.9695967435836792,0.47552525997161865,-0.1853790283203125,1.1891937255859375,0.2925872802734375
17.56,-0.20043721795082092,0.3851439654827118,0.367387056350708,-0.166015625,1.2325286865234375,0.259765625
17.58,-0.3227469027042389,-0.2708597183227539,0.2345706969499588,-0.3322906494140625,1.1249237060546875,0.0894622802734375
17.6,-0.3027140498161316,-0.06370733678340912,0.010964500717818737,-0.500579833984375,1.032806396484375,-0.0746002197265625
17.62,-0.5238565802574158,0.3254428207874298,-0.14081677794456482,-0.5438690185546875,1.3369293212890625,-0.0093536376953125
17.64,-1.2662239074707031,0.07022702693939209,0.0903293639421463,-0.349884033203125,1.36285400390625,0.1078033447265625
17.66,-2.2935526371002197,-0.294271320104599,0.2080053985118866,-0.2415924072265625,1.2257232666015625,0.333526611328125
17.68,-3.1269826889038086,-1.1089890003204346,-0.07142437994480133,-0.2415924072265625,1.2257232666015625,0.333526611328125
17.7,-3.2309677600860596,-2.877070426940918,-0.234910249710083,-0.341400146484375,1.208099365234375,0.1609954833984375
17.72,-3.4609215259552,-2.899595260620117,0.6081085801124573,-0.056671142578125,1.22222900390625,0.00579833984375
17.74,-3.077687978744507,-0.6689010858535767,1.4389597177505493,0.536102294921875,1.22564697265625,-0.0167083740234375
17.76,-2.8194494247436523,0.4819954037666321,0.8943712711334229,0.5789337158203125,1.2361907958984375,-0.32373046875
17.78,-2.2598345279693604,-0.6667319536209106,-0.31111419200897217,0.0395355224609375,1.2733154296875,-0.0001678466796875
17.8,-2.1838362216949463,-1.404828667640686,-0.5852970480918884,-0.3957366943359375,1.5336456298828125,0.1738128662109375
17.82,-2.2798514366149902,-1.6753448247909546,-0.6048017740249634,-0.271728515625,1.4227294921875,0.0931243896484375
17.84,-2.031151056289673,-1.5124036073684692,-0.645487368106842,-0.0996551513671875,1.100982666015625,-0.010040283203125
17.86,-1.610679030418396,-1.687869906425476,-0.7045664191246033,0.0217132568359375,0.9284210205078125,-0.03173828125
17.88,-1.4568846225738525,-1.884077787399292,-0.6268223524093628,-0.0783538818359375,0.795654296875,-0.1082305908203125
17.9,-1.158709168434143,-1.754295825958252,-0.6496911644935608,0.002471923828125,0.599578857421875,-0.014984130859375
17.92,-0.7515624165534973,-1.6346617937088013,-0.6592540740966797,0.002471923828125,0.599578857421875,-0.014984130859375
17.94,-0.32941463589668274,-1.5260992050170898,-0.6472706198692322,0.0845489501953125,0.56494140625,-0.0474700927734375
17.96,0.1625945121049881,-1.2152403593063354,-0.681642472743988,0.125640869140625,0.51788330078125,-0.0745391845703125
17.98,0.6790198087692261,-1.0330675840377808,-0.7240170836448669,0.19122314453125,0.4920806884765625,-0.0926361083984375
18,1.190158724784851,-0.6477012634277344,-0.7493845224380493,0.2238616943359375,0.4588165283203125,-0.110626220703125
18.02,1.8060375452041626,-0.017676997929811478,-0.7346457839012146,0.252044677734375,0.430877685546875,-0.049896240234375
18.04,2.6203341484069824,0.6886913180351257,-0.566282331943512,0.252044677734375,0.430877685546875,-0.049896240234375
18.06,3.1484549045562744,1.3228265047073364,-0.417896568775177,0.3042755126953125,0.4650115966796875,0.04718017578125
18.08,2.333813428878784,1.1455411911010742,-0.24707584083080292,0.2367401123046875,0.6815338134765625,0.316497802734375
18.1,-0.5100342035293579,-0.5231873393058777,-0.050346262753009796,0.0041351318359375,1.0720367431640625,0.9670562744140625
18.12,-1.6191822290420532,-0.7122278213500977,-0.4525379240512848,-0.4470367431640625,2.1277313232421875,2.0867919921875
18.14,-1.0649906396865845,-2.264759063720703,-1.1996744871139526,-0.350372314453125,1.1486053466796875,0.5003814697265625
18.16,-0.47873568534851074,-1.9756295680999756,-0.8213915824890137,-0.350372314453125,1.1486053466796875,0.5003814697265625
18.18,0.4025493264198303,0.3139882981777191,0.08897008746862411,0.24005126953125,0.1658935546875,0.4451141357421875
18.2,0.9858692288398743,1.4040595293045044,0.4383898675441742,0.5895843505859375,0.621429443359375,-0.4970703125
18.22,-0.05505233258008957,0.9445345401763916,1.3442678451538086,0.5895843505859375,0.621429443359375,-0.4970703125
18.24,-1.0850749015808105,-1.3957626819610596,0.4610744118690491,0.814239501953125,1.365234375,0.1786956787109375
18.26,0.40397942066192627,0.6001614332199097,-0.7760941386222839,-0.445404052734375,3.1159820556640625,1.1103057861328125
18.28,0.962879478931427,0.9508435726165771,-0.830854594707489,0.0212249755859375,0.1773529052734375,-0.50787353515625
18.3,1.6282331943511963,1.5540231466293335,-0.30434685945510864,0.0212249755859375,0.1773529052734375,-0.50787353515625
18.32,2.1083219051361084,1.9858225584030151,0.4493351876735687,0.447509765625,-0.0294952392578125,-0.376129150390625
18.34,2.206439256668091,2.051581621170044,0.7302957773208618,0.246368408203125,0.61724853515625,-0.5745391845703125
18.36,1.4817639589309692,1.5315226316452026,-0.016983510926365852,-0.188751220703125,1.3774566650390625,-0.301055908203125
18.38,1.2348166704177856,1.2616933584213257,-0.6946051120758057,-0.4244232177734375,1.3091278076171875,0.2400970458984375
18.4,1.2111420631408691,1.0321877002716064,-0.6402716040611267,-0.4244232177734375,1.3091278076171875,0.2400970458984375
18.42,1.2449777126312256,0.6863511800765991,-0.30078861117362976,-0.0025787353515625,0.8041534423828125,-0.084228515625
18.44,1.2207152843475342,0.4588139057159424,-0.12924720346927643,0.1611480712890625,0.7010955810546875,-0.3227386474609375
18.46,1.3779025077819824,0.7849699258804321,-0.12718085944652557,0.0155181884765625,0.7745513916015625,-0.2232208251953125
18.48,1.287295937538147,1.3168833255767822,-0.15210270881652832,-0.1631011962890625,0.9371795654296875,-0.0681915283203125
18.5,1.0040212869644165,1.1939846277236938,-0.13930995762348175,-0.21539306640625,0.9622802734375,0.11041259765625
18.52,0.9049046039581299,0.7973288297653198,0.014099573716521263,-0.207489013671875,0.9127655029296875,0.0656585693359375
18.54,1.10685396194458,0.6041668653488159,0.12262045592069626,-0.1152496337890625,0.8690643310546875,-0.0897369384765625
18.56,1.2238277196884155,0.5315142273902893,0.2850048542022705,-0.06268310546875,0.842437744140625,-0.1323089599609375
18.58,1.0589625835418701,0.7210245132446289,0.45656222105026245,-0.0314178466796875,0.90533447265625,-0.06524658203125
18.6,0.9080529808998108,1.1223056316375732,0.5545297861099243,-0.062591552734375,0.9587860107421875,0.06500244140625
18.62,0.6884164810180664,1.1861034631729126,0.5112084150314331,-0.1541290283203125,1.0265655517578125,0.12689208984375
18.64,0.41401368379592896,0.977371335029602,0.4314669668674469,-0.2568511962890625,1.09112548828125,0.1611480712890625
18.66,0.18556879460811615,0.8670847415924072,0.30948036909103394,-0.2980804443359375,1.1898193359375,0.1934051513671875
18.68,-0.1704987734556198,0.2840050756931305,0.19551436603069305,-0.2454071044921875,1.2518157958984375,0.1499176025390625
18.7,-0.31538110971450806,-0.13246163725852966,0.17627809941768646,-0.3012542724609375,1.14532470703125,0.071807861328125
18.72,-0.3605017364025116,0.2681896388530731,0.043044138699769974,-0.445770263671875,1.078521728515625,-0.0734405517578125
18.74,-0.6488762497901917,0.22607600688934326,-0.06842832267284393,-0.4102020263671875,1.314117431640625,0.06292724609375
18.76,-1.1912609338760376,-0.007330084685236216,-0.018080200999975204,-0.3048858642578125,1.3526763916015625,0.154388427734375
18.78,-1.965375542640686,-0.5209127068519592,0.03325862064957619,-0.29791259765625,1.3093109130859375,0.157958984375
18.8,-2.7279253005981445,-1.8157427310943604,0.1809394210577011,-0.2702484130859375,1.18597412109375,0.30145263671875
18.82,-3.3491015434265137,-2.6938672065734863,0.30495911836624146,-0.111907958984375,1.0112152099609375,0.2615203857421875
18.84,-3.2123770713806152,-1.9693516492843628,0.7794369459152222,0.0936737060546875,1.0186614990234375,0.1387176513671875
18.86,-3.002286911010742,-0.25632551312446594,1.3432345390319824,0.364471435546875,1.1639862060546875,-0.250457763671875
18.88,-2.816070079803467,0.46986788511276245,0.7351581454277039,0.4888153076171875,1.369293212890625,-0.264984130859375
18.9,-2.2988061904907227,-0.04105262830853462,0.05291008576750755,0.09844970703125,1.508758544921875,-0.002166748046875
18.92,-1.9513351917266846,-1.2170720100402832,-0.20887891948223114,0.0407562255859375,1.567291259765625,0.15911865234375
18.94,-2.1507208347320557,-1.6115472316741943,-0.3213537931442261,-0.18280029296875,1.113922119140625,-0.0595245361328125
18.96,-2.399379014968872,-1.1180291175842285,-0.23116610944271088,-0.18280029296875,1.113922119140625,-0.0595245361328125
18.98,-1.883845329284668,-1.256204605102539,-0.4053165912628174,-0.1374359130859375,0.9051513671875,0.07684326171875
19,-1.3546704053878784,-1.4699344635009766,-0.5902057886123657,-0.12811279296875,0.825103759765625,-0.066070556640625
19.02,-1.1057082414627075,-1.675088882446289,-0.707958996295929,-0.0207977294921875,0.792449951171875,-0.086944580078125
19.04,-0.8871780633926392,-1.7986241579055786,-0.6983919143676758,0.03460693359375,0.71771240234375,-0.010986328125
19.06,-0.5920830368995667,-1.7186059951782227,-0.6208598017692566,0.065185546875,0.600830078125,0.0016326904296875
19.08,-0.16961991786956787,-1.4084726572036743,-0.647048830986023,0.144378662109375,0.4966278076171875,-0.044158935546875
19.1,0.39110463857650757,-1.1133160591125488,-0.7449228763580322,0.205047607421875,0.473541259765625,-0.091522216796875
19.12,1.0071076154708862,-0.7757066488265991,-0.8014295697212219,0.22247314453125,0.452056884765625,-0.11224365234375
19.14,1.714615821838379,-0.29971322417259216,-0.9316973090171814,0.236358642578125,0.4403228759765625,-0.1025848388671875
19.16,2.550039768218994,0.3713546395301819,-0.9533205628395081,0.2019805908203125,0.40338134765625,-0.0559844970703125
19.18,3.1815366744995117,0.9655231833457947,-0.7694511413574219,0.236236572265625,0.5445404052734375,0.1816864013671875
19.2,2.6710078716278076,1.033849835395813,-0.4321380853652954,0.236236572265625,0.5445404052734375,0.1816864013671875
19.22,-0.326997309923172,0.014581073075532913,-0.24050714075565338,-0.277252197265625,1.97406005859375,2.0293731689453125
19.24,-1.481885313987732,-0.8146257996559143,-0.22968167066574097,-0.277252197265625,1.97406005859375,2.0293731689453125
19.26,-0.9332893490791321,-1.8139830827713013,-0.962501585483551,-0.3155670166015625,2.8949737548828125,1.5532073974609375
19.28,-0.6888287663459778,-2.466729164123535,-0.9245680570602417,-0.2528839111328125,1.478240966796875,0.548065185546875
19.3,-0.13424675166606903,-0.09218558669090271,-0.01883973367512226,0.18634033203125,0.2365264892578125,0.526702880859375
19.32,1.025038480758667,1.164236068725586,0.4208391010761261,0.6230316162109375,0.1728973388671875,0.1428070068359375
19.34,0.5564014315605164,1.2797913551330566,0.553581953048706,0.6284942626953125,0.733245849609375,-0.424163818359375
19.36,-0.962654709815979,-0.6282785534858704,0.7719699740409851,0.41546630859375,1.00921630859375,-0.0020294189453125
19.38,-0.14742779731750488,-0.07675469666719437,-0.27647286653518677,0.2285614013671875,2.196380615234375,1.04486083984375
19.4,0.8376427292823792,0.3991662859916687,-0.8006260991096497,-0.9012298583984375,1.9236602783203125,-0.335784912109375
19.42,1.2436845302581787,1.5399487018585205,-0.49431172013282776,-0.4739837646484375,0.478485107421875,-0.699371337890625
19.44,1.7835026979446411,2.3956573009490967,0.1563219577074051,0.2802581787109375,0.1121368408203125,-0.3546600341796875
19.46,2.122321367263794,2.0790200233459473,0.5356423854827881,0.3892059326171875,0.3396453857421875,-0.465576171875
19.48,1.7455923557281494,1.887862205505371,0.28370919823646545,0.019866943359375,1.0445098876953125,-0.5022735595703125
19.5,1.15565025806427,1.476399540901184,-0.4359773099422455,-0.3672943115234375,1.5804595947265625,-0.0009613037109375
19.52,1.2008973360061646,1.8178374767303467,-0.5858038067817688,-0.4654388427734375,1.5623626708984375,0.4287872314453125
19.54,1.3452891111373901,1.343579649925232,-0.3455187976360321,-0.0670166015625,0.9896240234375,0.0758514404296875
19.56,1.3002748489379883,0.33914875984191895,-0.16811710596084595,0.0221405029296875,0.7071685791015625,-0.3026580810546875
19.58,1.2708258628845215,0.0974743589758873,-0.1039210706949234,0.0221405029296875,0.7071685791015625,-0.3026580810546875
19.6,1.3648988008499146,0.8005233407020569,-0.1883118599653244,-0.1932525634765625,0.8953399658203125,-0.1269989013671875
19.62,1.1574089527130127,1.2005820274353027,-0.26199859380722046,-0.3795928955078125,0.979888916015625,0.08685302734375
19.64,0.9102311730384827,0.9523946046829224,-0.19277051091194153,-0.3107147216796875,0.9463043212890625,0.185394287109375
19.66,0.909834086894989,0.7655224800109863,-0.018248777836561203,-0.1353607177734375,0.9109649658203125,0.0562744140625
19.68,1.1259682178497314,0.5769631862640381,0.175343319773674,0.0141143798828125,0.8568878173828125,-0.0996246337890625
19.7,1.2124695777893066,0.5380980968475342,0.3432620167732239,0.0352935791015625,0.8518829345703125,-0.1201171875
19.72,1.0778952836990356,0.8563024401664734,0.5182871222496033,0.02325439453125,0.9004669189453125,-0.070892333984375
19.74,0.8595061898231506,1.4141963720321655,0.5524136424064636,-0.019744873046875,0.957733154296875,0.0830078125
19.76,0.5484362244606018,1.3362256288528442,0.5145384073257446,-0.153564453125,0.9983062744140625,0.1661224365234375
19.78,0.42429110407829285,0.8768731951713562,0.4334406554698944,-0.2274017333984375,1.0631866455078125,0.141571044921875
19.8,0.27729764580726624,0.66117924451828,0.21065178513526917,-0.2162322998046875,1.1740570068359375,0.0723876953125
19.82,-0.1369549185037613,0.5134451985359192,0.13974937796592712,-0.3102569580078125,1.177398681640625,0.0485992431640625
19.84,-0.3229628801345825,0.614768922328949,0.11826911568641663,-0.4378509521484375,1.1276092529296875,0.0292205810546875
19.86,-0.3219655156135559,0.6805868148803711,-0.10050876438617706,-0.4002532958984375,1.20782470703125,0.0273895263671875
19.88,-0.6675620675086975,0.3432183563709259,-0.08173400908708572,-0.312225341796875,1.34320068359375,0.0400543212890625
19.9,-1.4429651498794556,-0.04451420530676842,-0.03924620524048805,-0.2982940673828125,1.318145751953125,0.0913238525390625
19.92,-2.506612539291382,-0.7855027914047241,0.04789535328745842,-0.3478546142578125,1.3340606689453125,0.2562255859375
19.94,-2.8500397205352783,-1.7614951133728027,-0.24844443798065186,-0.3066864013671875,1.245208740234375,0.3141021728515625
19.96,-3.3308730125427246,-2.255031108856201,0.2583402097225189,-0.1592254638671875,1.27886962890625,0.0070037841796875
19.98,-3.2441482543945312,-1.3735016584396362,1.1125980615615845,0.449951171875,1.180419921875,0.1132354736328125
20,-2.9774653911590576,-0.019902868196368217,1.3980889320373535,0.5014801025390625,1.2433319091796875,-0.1702728271484375
20.02,-2.514160633087158,0.37939366698265076,0.5858253836631775,0.1143035888671875,1.4787445068359375,0.0252227783203125
20.04,-2.2232470512390137,0.19632530212402344,0.19401846826076508,0.1143035888671875,1.4787445068359375,0.0252227783203125
20.06,-2.0554039478302,-0.9128522276878357,0.04254905879497528,0.02349853515625,1.477874755859375,0.1751861572265625
