timestamp,gyro_x,gyro_y,gyro_z,acc_x,acc_y,acc_z
0,-0.07256899774074554,-0.6953308582305908,-0.07922670245170593,-0.06319600343704224,0.36331599950790405,1.020346999168396
0.02,0.09666989743709564,-0.2725664973258972,-0.13355359435081482,-0.01384699996560812,0.3601439893245697,0.9304634928703308
0.04,0.06258244067430496,-0.17243459820747375,-0.16231487691402435,-0.01384699996560812,0.3601439893245697,0.9304634928703308
0.06,-0.061916667968034744,-0.21930484473705292,-0.15166255831718445,-0.03510550037026405,0.38311049342155457,0.8750145435333252
0.08,-0.09706936031579971,-0.3460675776004791,-0.11544463038444519,-0.06783200055360794,0.4004344940185547,0.8696465492248535
0.1,-0.07363422960042953,-0.18095645308494568,-0.14420592784881592,-0.0031109999399632215,0.35282400250434875,0.8935585021972656
0.12,-0.1311568170785904,-0.18308693170547485,-0.18681524693965912,-0.0031109999399632215,0.35282400250434875,0.8935585021972656
0.14,-0.19720126688480377,-0.24913136661052704,-0.04194355010986328,-0.18629398941993713,0.45319947600364685,0.9829844832420349
0.16,-0.14926578104496002,0.04913387447595596,0.23168818652629852,-0.18629398941993713,0.45319947600364685,0.9829844832420349
0.18,-0.11837401986122131,-0.23954427242279053,0.5651060938835144,-0.0634400025010109,0.2946605086326599,0.9053009748458862
0.2,-0.026763979345560074,-0.6346125602722168,0.41064733266830444,0.08607099950313568,0.3186030089855194,1.0606679916381836
0.22,0.17230144143104553,-0.3577851355075836,0.43940863013267517,0.049897998571395874,0.30786702036857605,1.044777512550354
0.24,0.164844810962677,0.021437814459204674,0.37655988335609436,0.03525800257921219,0.3342495262622833,0.9004209637641907
0.26,-0.050199106335639954,0.013981183059513569,0.2870802879333496,0.08314299583435059,0.36331599950790405,0.8571720123291016
0.28,-0.23235395550727844,0.29506954550743103,0.23275341093540192,0.02400350011885166,0.2709924876689911,0.924607515335083
0.3,-0.18548369407653809,0.7135729789733887,0.19240771234035492,0.05306999757885933,0.30152300000190735,0.912132978439331
0.32,-0.1087869256734848,1.2248848676681519,0.12849372625350952,0.054534003138542175,0.31250301003456116,0.9206730127334595
0.34,-0.08641702681779861,1.3090382814407349,0.25192761421203613,-0.03925349935889244,0.2853884994983673,0.8816024661064148
0.36,-0.3228987455368042,1.1172963380813599,0.5416709780693054,-0.03925349935889244,0.2853884994983673,0.8816024661064148
0.38,-0.5316844582557678,0.7444647550582886,0.5533885359764099,-0.05096549913287163,0.2761165201663971,0.760700523853302
0.4,-0.705184280872345,-0.044606633484363556,0.32542869448661804,-0.007747000083327293,0.33986151218414307,0.8137094974517822
0.42,-0.7339455485343933,-0.4962654411792755,-0.07283531129360199,-0.007747000083327293,0.33986151218414307,0.8137094974517822
0.44,-0.8383383750915527,-1.6666902303695679,-0.39333727955818176,0.10412700474262238,0.3139669895172119,0.8163934946060181
0.46,-1.493323564529419,-0.34074142575263977,-0.51796954870224,0.0027754998300224543,0.2475380003452301,0.9753900170326233
0.48,-1.5369981527328491,0.4772244095802307,-0.6564498543739319,-0.016287000849843025,0.21944749355316162,1.0188829898834229
0.5,-1.2536461353302002,-0.17243459820747375,-0.7629731297492981,0.0003355000226292759,0.06359250098466873,1.1002265214920044
0.52,-1.1802781820297241,-0.9275516271591187,0.6141068339347839,0.02668749913573265,0.0731084942817688,1.3019839525222778
0.54,-0.8234251141548157,-0.4643084406852722,1.0816110372543335,0.4060465097427368,0.10144300013780594,1.2509576082229614
0.56,0.00399462366476655,-1.1660306453704834,1.0837414264678955,0.49620452523231506,0.04574999958276749,1.4109300374984741
0.58,0.5621767044067383,-1.5452536344528198,1.6492470502853394,0.49620452523231506,0.04574999958276749,1.4109300374984741
0.6,0.6185009479522705,-3.108616352081299,1.5863982439041138,0.6500769853591919,0.09241500496864319,1.0433135032653809
0.62,1.0818772315979004,-5.7147088050842285,1.720617651939392,0.6500769853591919,0.09241500496864319,1.0433135032653809
0.64,1.8645572662353516,-7.59657621383667,2.341515302658081,0.1862024962902069,-0.2954840064048767,1.0352615118026733
0.66,2.813546657562256,-7.496444225311279,3.170133590698242,-0.098362497985363,-0.3416610062122345,0.9394915103912354
0.68,2.8902435302734375,-6.842524528503418,4.885824203491211,-0.3375129997730255,-0.5754129886627197,0.23085449635982513
0.7,2.4545631408691406,-6.003253936767578,6.020031452178955,-0.16259551048278809,-0.6430925130844116,0.2680034935474396
0.72,2.1979751586914062,-4.691286087036133,7.100976467132568,-0.04584150016307831,-0.7481344938278198,0.12410449236631393
0.74,1.9710805416107178,-3.9894309043884277,7.57700252532959,0.031109999865293503,-0.8922470211982727,-0.045658502727746964
0.76,1.1756178140640259,-2.7476353645324707,8.413077354431152,0.15323199331760406,-1.1374974250793457,-0.1953829973936081
0.78,0.7921339273452759,-2.007431745529175,8.849689483642578,0.6403169631958008,-1.3434334993362427,0.19349201023578644
0.8,1.4449886083602905,-1.649646520614624,8.486577987670898,1.402938961982727,-1.4242889881134033,0.9082289934158325
0.82,3.343899726867676,-1.4760135412216187,6.780474662780762,2.5634639263153076,-1.260625958442688,1.7243480682373047
0.84,5.512181282043457,-0.3386109471321106,3.434178113937378,3.4721810817718506,-0.9679784774780273,2.056797981262207
0.86,5.747598171234131,1.1929278373718262,-0.391206830739975,4.035454750061035,-0.36535948514938354,1.134416937828064
0.88,4.275712013244629,2.0075647830963135,-2.915276527404785,3.482917070388794,-0.15576350688934326,0.1265445053577423
0.9,3.0031580924987793,1.9298027753829956,-3.6075448989868164,2.0268163681030273,-0.15917949378490448,-0.8317350149154663
0.92,0.8869396448135376,0.4591154456138611,-4.395684242248535,1.5109089612960815,-0.27422550320625305,-0.8451550006866455
0.94,-0.13648298382759094,-1.0607057809829712,-4.9697113037109375,1.2329319715499878,-0.6047540307044983,-0.5239289999008179
0.96,-0.8670997023582458,-1.5005139112472534,-4.805665493011475,1.2329319715499878,-0.6047540307044983,-0.5239289999008179
0.98,-1.7873278856277466,-0.6207645535469055,-4.293421745300293,0.3054269850254059,-1.1819665431976318,-0.0844849944114685
1,-2.0396549701690674,-0.4579170346260071,-3.26147723197937,0.3054269850254059,-1.1819665431976318,-0.0844849944114685
1.02,-0.8244903683662415,-3.796623706817627,-1.962159276008606,-0.8495164513587952,-0.6533404588699341,0.5107834935188293
1.04,-1.2143656015396118,-4.642285346984863,-0.3242303133010864,-0.8495164513587952,-0.6533404588699341,0.5107834935188293
1.06,-2.0524377822875977,-4.35999870300293,0.8271534442901611,-0.6743549704551697,-0.3673115074634552,0.3297964930534363
1.08,-2.41994309425354,-4.484631061553955,0.3595161437988281,1.154760479927063,-0.21584850549697876,0.3046340048313141
1.1,-3.096099853515625,-4.3472161293029785,0.06990591436624527,1.0318760871887207,-0.19681650400161743,-0.2396080046892166
1.12,-3.5189971923828125,-5.153464317321777,0.20199480652809143,0.8298744559288025,-0.42178449034690857,0.06963150203227997
1.14,-1.8192847967147827,-2.4866533279418945,2.2360572814941406,1.2158215045928955,-0.7408145070075989,0.347852498292923
1.16,-3.808607578277588,0.803052544593811,2.6120846271514893,0.8806874752044678,-0.5573570132255554,-0.420137494802475
1.18,-4.856663703918457,1.149253249168396,4.286231517791748,0.4400234818458557,-0.5583330392837524,-0.3097274899482727
1.2,-4.563724517822266,-1.779471755027771,6.5621018409729,0.582427978515625,-0.8443620204925537,-0.36249250173568726
1.22,-2.1706786155700684,-1.490926742553711,6.455578327178955,0.582427978515625,-0.8443620204925537,-0.36249250173568726
1.24,2.7581546306610107,2.927793025970459,0.3808208107948303,2.1936514377593994,-1.0370914936065674,0.3664270043373108
1.26,2.517411947250366,1.8266083002090454,-0.24753352999687195,0.9322325587272644,-0.8602524995803833,-0.5869725346565247
1.28,0.6110442876815796,-3.192769765853882,0.46390897035598755,0.21234099566936493,-0.813587486743927,-0.5859965085983276
1.3,0.38215234875679016,-5.359054088592529,0.5331491231918335,0.5289310216903687,-0.6232979893684387,-0.13310199975967407
1.32,1.066964030265808,-4.036301136016846,0.20306004583835602,0.7399910092353821,-0.698541522026062,0.008326499722898006
1.34,0.8059819340705872,-2.272674560546875,-0.13355359435081482,0.675971508026123,-0.5685809850692749,-0.48607850074768066
1.36,0.8400694131851196,-1.4781439304351807,-0.7608426809310913,0.6762154698371887,-0.482601523399353,-0.28383299708366394
1.38,0.8304823040962219,-0.22676147520542145,-0.4636426866054535,0.5433270335197449,-0.6130499839782715,-0.16826850175857544
1.4,-0.27496325969696045,0.8893364071846008,0.004926702938973904,0.7560949921607971,-0.5658969879150391,-0.12797801196575165
1.42,-0.827686071395874,2.6071577072143555,0.11358047276735306,0.8569889664649963,-0.3888140022754669,-0.0630130022764206
1.44,-0.6721620559692383,3.1088826656341553,0.14766792953014374,0.4334050118923187,-0.4203205108642578,-0.20395350456237793
1.46,-0.35698622465133667,3.564669132232666,1.4150289297103882,0.4334050118923187,-0.4203205108642578,-0.20395350456237793
1.48,-0.427291601896286,3.502885580062866,1.4564398527145386,0.7223924994468689,-0.8819990158081055,-0.42599350214004517
1.5,-0.5210320949554443,2.9022274017333984,1.2115694284439087,0.7223924994468689,-0.8819990158081055,-0.42599350214004517
1.52,0.010386021807789803,1.8319344520568848,0.6386072039604187,0.7805255055427551,-0.7447185516357422,-0.24595199525356293
1.54,0.4332835376262665,0.27163442969322205,0.666303277015686,0.63543701171875,-0.2522655129432678,-0.2630625069141388
1.56,0.9604407548904419,-0.8167673945426941,1.7099653482437134,0.6075904965400696,-0.5578449964523315,-0.13261400163173676
1.58,1.3075735569000244,-0.4856131076812744,3.47998309135437,0.5125524997711182,-1.192946434020996,-0.123586006462574
1.6,0.6834801435470581,0.3089175820350647,3.4416346549987793,0.34059348702430725,-1.6304384469985962,-0.19562700390815735
1.62,0.47695809602737427,0.12995843589305878,3.396894931793213,0.5521414875984192,-0.8744044899940491,0.10580450296401978
1.64,-0.15991811454296112,-0.020106272771954536,3.241504192352295,0.3051829934120178,-0.7965074777603149,-0.010491999797523022
1.66,-0.17589659988880157,0.3920057415962219,3.0465664863586426,0.5584855079650879,-0.9670025110244751,0.12239649891853333
1.68,-1.5274109840393066,3.101425886154175,3.4586784839630127,-0.00823500007390976,-1.2764860391616821,-0.03711850196123123
1.7,-3.479583740234375,3.621126413345337,4.3394927978515625,-0.11962100118398666,-1.4899860620498657,-0.29310500621795654
1.72,-1.4113006591796875,-0.6591129302978516,1.308505654335022,0.33010151982307434,-0.6672790050506592,0.03251300007104874
1.74,-0.8543168902397156,0.2588516175746918,0.7078473567962646,-0.23930299282073975,-0.7759810090065002,-0.2945689857006073
1.76,-0.6434007287025452,-0.5174369215965271,0.5800193548202515,0.01668350026011467,-0.7987034916877747,-0.305061012506485
1.78,-0.4848141670227051,-1.2746844291687012,0.1412765234708786,-0.24787351489067078,-0.8553724884986877,-0.36956849694252014
1.8,-0.08428656309843063,-0.4153077304363251,-0.5062519907951355,-0.1298689991235733,-0.9369600415229797,-0.21127350628376007
1.82,0.0050598569214344025,0.11291470378637314,-0.42529428005218506,0.011803499422967434,-1.1914825439453125,-0.17464299499988556
1.84,0.04234301298856735,0.012915950268507004,-0.29014283418655396,0.14737600088119507,-1.115751028060913,-0.1929430067539215
1.86,0.12756165862083435,-0.06910699605941772,-0.19746756553649902,0.05749250203371048,-0.9760304689407349,-0.22935999929904938
1.88,0.2734985649585724,-0.20865251123905182,-0.17509767413139343,0.01351150032132864,-1.006072998046875,-0.29066500067710876
1.9,0.5216978788375854,-0.6441996693611145,-0.2613815665245056,0.019123500213027,-0.8751364350318909,-0.247172012925148
1.92,0.5216978788375854,-0.6218297481536865,-0.5573831796646118,-0.12840498983860016,-0.8607404828071594,-0.1621685028076172
1.94,0.22130216658115387,-0.7081136703491211,-1.0408657789230347,-0.2051125019788742,-0.8585445284843445,-0.17073900997638702
1.96,0.05193011090159416,-0.35352420806884766,-1.2230206727981567,-0.05514400079846382,-0.9015190005302429,-0.12871000170707703
1.98,-0.04274247586727142,-0.0009320789249613881,-1.298652172088623,0.15079200267791748,-0.9403759837150574,-0.17659500241279602
2,-0.10239552706480026,0.14061075448989868,-0.5296871066093445,0.20453299582004547,-1.0646940469741821,-0.2054174840450287
2.02,0.013581721112132072,0.2332860380411148,0.04860125854611397,0.2411634922027588,-1.1497280597686768,-0.21249349415302277
2.04,0.015712186694145203,0.46124589443206787,0.418103963136673,0.2445795089006424,-0.9303414821624756,-0.18513499200344086
2.06,-0.040612008422613144,-2.0596280097961426,2.017817735671997,0.41583701968193054,-0.9562360048294067,-0.30188900232315063
2.08,0.06790860742330551,-2.0883893966674805,1.6471165418624878,-0.0470614992082119,-0.8900509476661682,-0.22005750238895416
2.1,-0.11837401986122131,-0.785875678062439,1.4054418802261353,0.11757749319076538,-0.8446060419082642,-0.12041400372982025
2.12,-0.6041202545166016,-2.5750677585601807,2.304232120513916,0.2551020085811615,-1.0302594900131226,-0.2706265151500702
2.14,-0.13648298382759094,-6.859568119049072,2.7557578086853027,-0.22197899222373962,-1.1792824268341064,-0.3544100224971771
2.16,2.2341930866241455,-9.084307670593262,0.6556509137153625,0.018147500231862068,-0.9525759816169739,-0.23546001315116882
2.18,1.8114287853240967,-7.366485595703125,-1.6777420043945312,0.07091249525547028,-0.829721987247467,-0.1416420042514801
2.2,-0.040612008422613144,-3.150160312652588,-0.7310161590576172,-0.4361805021762848,-0.7425224781036377,-0.21200551092624664
2.22,-0.26324570178985596,-0.6569824814796448,-0.3679048418998718,-0.2857239842414856,-0.9706624746322632,0.18836799263954163
2.24,-0.3133116662502289,0.6274222731590271,-0.17190198600292206,-0.4745495021343231,-0.9328120350837708,0.18223750591278076
2.26,-0.3846822679042816,0.7764217257499695,-0.11544463038444519,-0.4745495021343231,-0.9328120350837708,0.18223750591278076
2.28,-0.5902722477912903,1.3653624057769775,-0.17190198600292206,-0.321866512298584,-0.9352520108222961,-0.009759999811649323
2.3,-0.8457950353622437,1.5890613794326782,-0.3828181326389313,-0.2551935017108917,-0.9604145288467407,-0.0630130022764206
2.32,-0.9746882319450378,0.9702941179275513,-0.6074491143226624,-0.2551935017108917,-0.9604145288467407,-0.0630130022764206
2.34,-0.8106423020362854,0.9500547051429749,-0.6830806732177734,-0.06734400242567062,-0.9139935374259949,-0.053222499787807465
2.36,-0.5071840882301331,1.3685581684112549,-0.7299509048461914,-0.05364949628710747,-0.9567239880561829,-0.17879100143909454
2.38,-0.366573303937912,0.8467270731925964,-0.7203638553619385,-0.01579900085926056,-0.9953369498252869,-0.3033529818058014
2.4,-0.32929015159606934,1.1780145168304443,-0.4647079110145569,-0.12303700298070908,-0.9345200061798096,-0.030500002205371857
2.42,-0.576424241065979,1.899044156074524,-0.40398961305618286,-0.24271899461746216,-0.9012749791145325,-0.0024095000699162483
2.44,-0.4954665005207062,2.4517669677734375,-0.16551057994365692,-0.2896279990673065,-1.0109530687332153,0.15536700189113617
2.46,-0.659379243850708,1.0842740535736084,-0.6585803031921387,0.33180949091911316,-1.0456619262695312,-0.6021005511283875
2.48,-0.2259625494480133,-0.48241740465164185,-0.962171733379364,0.16668249666690826,-1.1050150394439697,-0.3180235028266907
2.5,0.19147562980651855,-1.3109023571014404,-0.6841459274291992,0.3256790041923523,-1.055177927017212,-0.5625420212745667
2.52,1.044594168663025,-0.1671084314584732,0.1849510818719864,0.20770500600337982,-1.0170835256576538,-0.25107598304748535
2.54,0.823025643825531,-0.43980807065963745,0.3115806579589844,0.03818599879741669,-0.8360660076141357,-0.1592404991388321
2.56,0.28734660148620605,-0.33328479528427124,0.2742975056171417,-0.00750300008803606,-0.8419219851493835,-0.15143249928951263
2.58,-0.1290263533592224,-0.32156720757484436,0.08694964647293091,-0.03705750033259392,-0.9161894917488098,-0.11968199908733368
2.6,-0.40385645627975464,-0.2640446424484253,-0.08135717362165451,-0.04657349735498428,-0.9672464728355408,-0.16192449629306793
2.62,-0.36124715209007263,-0.2736317217350006,-0.10905323177576065,-0.018482999876141548,-0.9633424878120422,-0.20224550366401672
2.64,-0.15991811454296112,-0.34287187457084656,-0.11757509410381317,0.02693150006234646,-0.976518452167511,-0.21737349033355713
2.66,0.12436595559120178,-0.4536561071872711,-0.06218297779560089,0.053314000368118286,-0.9870409369468689,-0.21298149228096008
2.68,0.19254086911678314,-0.4461994767189026,-0.03129122033715248,0.03525800257921219,-0.9860649704933167,-0.20444151759147644
2.7,0.19041040539741516,-0.4227643609046936,-0.011051792651414871,-0.013359000906348228,-0.9833505153656006,-0.18269500136375427
2.72,0.18295377492904663,-0.33435001969337463,0.04434032365679741,-0.058803997933864594,-0.9833505153656006,-0.1614365130662918
2.74,0.15206201374530792,-0.26830556988716125,0.06564498692750931,-0.08835849910974503,-0.9650505185127258,-0.15826450288295746
2.76,0.09880036115646362,-0.14473854005336761,0.03155753016471863,-0.11571700125932693,-0.964074432849884,-0.14484450221061707
2.78,0.06684337556362152,0.0011983871227130294,-0.0185084231197834,-0.1281609982252121,-0.9618784785270691,-0.1458204984664917
2.8,0.04873441159725189,0.0778951644897461,-0.02809552103281021,-0.14112350344657898,-0.9943609833717346,-0.1404220014810562
2.82,0.022103585302829742,0.15445879101753235,0.012383334338665009,-0.0995825007557869,-0.9963130354881287,-0.12700200080871582
2.84,-0.022503048181533813,0.21730753779411316,0.05073172226548195,-0.04828149825334549,-0.9865529537200928,-0.10525550693273544
2.86,-0.07896039634943008,0.23861220479011536,0.07523208111524582,0.0008234999841079116,-0.9823745489120483,-0.1160220056772232
2.88,-0.09280842542648315,0.2780258059501648,0.11677616834640503,-0.001891000079922378,-0.9728584289550781,-0.12138999253511429
2.9,-0.060851436108350754,0.2886781394481659,0.10612384229898453,-0.01311499997973442,-0.9587064981460571,-0.15850849449634552
2.92,-0.011850717477500439,0.2535254657268524,0.06564498692750931,-0.021654998883605003,-0.9611465334892273,-0.18513499200344086
2.94,0.03488638252019882,0.20558997988700867,0.02836182899773121,0.004239500034600496,-0.9564799666404724,-0.18708699941635132
2.96,0.04873441159725189,0.14380645751953125,0.007057168986648321,0.028181998059153557,-0.957211971282959,-0.1773270070552826
2.98,-0.0011983871227130294,0.07896039634943008,0.0027962366584688425,0.03013399988412857,-0.9687105417251587,-0.17342300713062286
3,-0.017176883295178413,0.048068638890981674,-0.005725627299398184,0.013267499394714832,-0.9777385592460632,-0.17195899784564972
3.02,0.008255556225776672,-0.004127778112888336,-0.012117025442421436,-0.007991000078618526,-0.9748104810714722,-0.17879100143909454
3.04,0.014646953903138638,-0.059519894421100616,-0.01744319126009941,-0.016774998977780342,-0.9709064960479736,-0.1802549958229065
3.06,-0.0033288532868027687,-0.09041165560483932,-0.02809552103281021,-0.015554999932646751,-0.9706624746322632,-0.1773270070552826
3.08,-0.006524552125483751,-0.10106398165225983,-0.02596505545079708,-0.01823900081217289,-0.9779825210571289,-0.16924449801445007
3.1,0.00719032296910882,-0.11278154700994492,-0.009986559860408306,-0.020923001691699028,-0.978470504283905,-0.1655845046043396
3.12,0.0007989247678779066,-0.10958584398031235,-0.00359516148455441,-0.0365694984793663,-0.9755424857139587,-0.15997250378131866
3.14,-0.022503048181533813,-0.08828118443489075,-0.005725627299398184,-0.04974550008773804,-0.9770064353942871,-0.1592404991388321
3.16,-0.03954677656292915,-0.06910699605941772,-0.009986559860408306,-0.05514400079846382,-0.9709064960479736,-0.15777650475502014
3.18,-0.047003407031297684,-0.042476166039705276,-0.009986559860408306,-0.05538799986243248,-0.9706624746322632,-0.16119250655174255
3.2,-0.050199106335639954,-0.028628136962652206,-0.014247491955757141,-0.04925749823451042,-0.9674904942512512,-0.1592404991388321
3.22,-0.051264338195323944,-0.016910573467612267,-0.014247491955757141,-0.0441334992647171,-0.9713944792747498,-0.16802451014518738
3.24,-0.037416309118270874,0.0011983871227130294,-0.006790860556066036,-0.0365694984793663,-0.9767624735832214,-0.1655845046043396
3.26,-0.031024912372231483,0.015046416781842709,-0.004660394508391619,-0.025071000680327415,-0.9740785360336304,-0.1668044924736023
3.28,-0.036351077258586884,0.031024912372231483,0.000665770610794425,-0.033641502261161804,-0.9670025110244751,-0.1668044924736023
3.3,-0.0555252730846405,0.04593817517161369,0.0027962366584688425,-0.036325499415397644,-0.9760304689407349,-0.1614365130662918
3.32,-0.061916667968034744,0.054460037499666214,0.0017310036346316338,-0.03534949943423271,-0.9733465313911438,-0.1592404991388321
3.34,-0.053394805639982224,0.053394805639982224,0.000665770610794425,-0.031201500445604324,-0.9694425463676453,-0.16704849898815155
3.36,-0.031024912372231483,0.060851436108350754,-0.004660394508391619,-0.023606998845934868,-0.9689545631408691,-0.16290049254894257
3.38,-0.022503048181533813,0.06298190355300903,-0.007856093347072601,-0.022874999791383743,-0.9706624746322632,-0.15899650752544403
3.4,-0.022503048181533813,0.07363422960042953,-0.005725627299398184,-0.022874999791383743,-0.9733465313911438,-0.16314449906349182
3.42,-0.023568280041217804,0.08322133123874664,0.0017310036346316338,-0.02458300068974495,-0.9752985239028931,-0.16924449801445007
3.44,-0.024633513763546944,0.08961272984743118,0.0038614696823060513,-0.021167000755667686,-0.9684664607048035,-0.16314449906349182
3.46,-0.016111649572849274,0.08961272984743118,0.007057168986648321,-0.016774998977780342,-0.9674904942512512,-0.15875250101089478
3.48,-0.015046416781842709,0.09280842542648315,0.009187635034322739,-0.01823900081217289,-0.965538501739502,-0.16241249442100525
3.5,-0.006524552125483751,0.09280842542648315,0.007057168986648321,-0.017262998968362808,-0.9731025695800781,-0.16241249442100525
3.52,-0.0011983871227130294,0.0874822586774826,0.007057168986648321,-0.01384699996560812,-0.9721264839172363,-0.16875649988651276
3.54,-0.004394086077809334,0.08215609937906265,0.0027962366584688425,-0.01140700001269579,-0.972370445728302,-0.1685125082731247
3.56,-0.005459319334477186,0.05978620424866676,0.0027962366584688425,-0.009211000055074692,-0.9731025695800781,-0.17098300158977509
3.58,-0.005459319334477186,0.041677240282297134,0.0027962366584688425,-0.007747000083327293,-0.9740785360336304,-0.16753649711608887
3.6,0.0007989247678779066,0.021437814459204674,0.0027962366584688425,-0.0026229999493807554,-0.972370445728302,-0.17830300331115723
3.62,0.00719032296910882,0.0033288532868027687,0.013448567129671574,-0.005307000130414963,-0.972370445728302,-0.1650964915752411
3.64,0.009320789016783237,-0.011584409512579441,0.015579032711684704,-0.013359000906348228,-0.9762744903564453,-0.16951899230480194
3.66,-0.0033288532868027687,-0.023301972076296806,0.014513799920678139,-0.020434999838471413,-0.9718824625015259,-0.16704849898815155
3.68,-0.00226362026296556,-0.027562905102968216,0.01664426550269127,-0.020434999838471413,-0.9718824625015259,-0.16704849898815155
3.7,0.00399462366476655,-0.024367205798625946,0.014513799920678139,-0.02458300068974495,-0.9704185128211975,-0.1743989884853363
3.72,0.0061250897124409676,-0.016910573467612267,0.014513799920678139,-0.025071000680327415,-0.9652945399284363,-0.16485249996185303
3.74,0.011451254598796368,-0.013714875094592571,0.011318100616335869,-0.02702300064265728,-0.9713944792747498,-0.1638765037059784
3.76,0.011451254598796368,-0.009453942999243736,0.009187635034322739,-0.02802949957549572,-0.9711505174636841,-0.1643645018339157
3.78,0.00399462366476655,-0.0009320789249613881,0.0038614696823060513,-0.03315350040793419,-0.9735905528068542,-0.1655845046043396
3.8,-0.005459319334477186,0.0033288532868027687,0.004926702938973904,-0.030957499518990517,-0.9752985239028931,-0.16802451014518738
3.82,-0.007589785382151604,0.007589785382151604,0.0038614696823060513,-0.029981501400470734,-0.9711505174636841,-0.16875649988651276
3.84,-0.008655018173158169,0.015046416781842709,0.0038614696823060513,-0.029981501400470734,-0.9735905528068542,-0.17073900997638702
3.86,-0.006524552125483751,0.020372580736875534,0.0027962366584688425,-0.02555900067090988,-0.9735905528068542,-0.16778050363063812
3.88,-0.006524552125483751,0.017176883295178413,0.0038614696823060513,-0.020434999838471413,-0.9687105417251587,-0.1731790006160736
3.9,-0.008655018173158169,0.017176883295178413,0.0017310036346316338,-0.020434999838471413,-0.9687105417251587,-0.1731790006160736
3.92,-0.016111649572849274,0.015046416781842709,0.0027962366584688425,-0.021167000755667686,-0.9684664607048035,-0.17195899784564972
3.94,-0.018242115154862404,0.015046416781842709,0.0027962366584688425,-0.026778999716043472,-0.9731025695800781,-0.17122700810432434
3.96,-0.013981183059513569,0.015046416781842709,0.0017310036346316338,-0.023606998845934868,-0.9706624746322632,-0.17073900997638702
3.98,-0.013981183059513569,0.010785484686493874,0.000665770610794425,-0.017994999885559082,-0.9721264839172363,-0.1702509969472885
4,-0.026763979345560074,0.008655018173158169,-0.00359516148455441,-0.02067900076508522,-0.968222439289093,-0.17171500623226166
4.02,-0.028894444927573204,0.009720250964164734,-0.004660394508391619,-0.01823900081217289,-0.9731025695800781,-0.17391100525856018
4.04,-0.019307348877191544,0.0033288532868027687,-0.0025299284607172012,-0.01970299892127514,-0.9748104810714722,-0.17708300054073334
4.06,-0.013981183059513569,0.0001331541279796511,-0.0025299284607172012,-0.024094998836517334,-0.9689545631408691,-0.1731790006160736
4.08,-0.019307348877191544,-0.0009320789249613881,-0.00359516148455441,-0.021167000755667686,-0.9670025110244751,-0.1756190061569214
4.1,-0.024633513763546944,-0.001997311832383275,-0.004660394508391619,-0.021167000755667686,-0.9670025110244751,-0.1756190061569214
4.12,-0.020372580736875534,0.00226362026296556,-0.00359516148455441,-0.01970299892127514,-0.9691985249519348,-0.17659500241279602
4.14,-0.020372580736875534,-0.006258244160562754,-0.00359516148455441,-0.018482999876141548,-0.9670025110244751,-0.16900049149990082
4.16,-0.019307348877191544,-0.0030625448562204838,-0.00359516148455441,-0.018482999876141548,-0.9670025110244751,-0.16900049149990082
4.18,-0.017176883295178413,-0.0030625448562204838,-0.00359516148455441,-0.020923001691699028,-0.9691985249519348,-0.17073900997638702
4.2,-0.017176883295178413,-0.001997311832383275,-0.006790860556066036,-0.02311900071799755,-0.9699305295944214,-0.17659500241279602
4.22,-0.013981183059513569,0.0001331541279796511,-0.00359516148455441,-0.02189899981021881,-0.9726144671440125,-0.17586299777030945
4.24,-0.009720250964164734,0.0033288532868027687,-0.006790860556066036,-0.02189899981021881,-0.9726144671440125,-0.17586299777030945
4.26,-0.008655018173158169,0.0033288532868027687,-0.008921326138079166,-0.021654998883605003,-0.9691985249519348,-0.17586299777030945
4.28,-0.007589785382151604,0.0011983871227130294,-0.007856093347072601,-0.022874999791383743,-0.9726144671440125,-0.17195899784564972
4.3,-0.010785484686493874,0.00226362026296556,-0.006790860556066036,-0.022386999800801277,-0.9721264839172363,-0.17488700151443481
4.32,-0.007589785382151604,0.005459319334477186,-0.008921326138079166,-0.018970999866724014,-0.9711505174636841,-0.17366699874401093
4.34,-0.010785484686493874,0.006524552125483751,0.000665770610794425,-0.02311900071799755,-0.9701744914054871,-0.17171500623226166
4.36,-0.013981183059513569,0.008655018173158169,-0.0003994623839389533,-0.02433899976313114,-0.9701744914054871,-0.1785469949245453
4.38,-0.016111649572849274,0.008655018173158169,0.004926702938973904,-0.02214300073683262,-0.9738345146179199,-0.1761070042848587
4.4,-0.008655018173158169,0.011850717477500439,-0.0003994623839389533,-0.02067900076508522,-0.9691985249519348,-0.17879100143909454
4.42,-0.010785484686493874,0.008655018173158169,0.005991935729980469,-0.021410999819636345,-0.9711505174636841,-0.17635099589824677
4.44,-0.012915950268507004,0.007589785382151604,0.005991935729980469,-0.020191000774502754,-0.9728584289550781,-0.17976699769496918
4.46,-0.019307348877191544,0.0033288532868027687,0.0027962366584688425,-0.023606998845934868,-0.9713944792747498,-0.17927899956703186
4.48,-0.022503048181533813,0.0011983871227130294,0.004926702938973904,-0.021410999819636345,-0.9709064960479736,-0.1778150051832199
4.5,-0.033155377954244614,-0.006258244160562754,0.0017310036346316338,-0.025314999744296074,-0.9706624746322632,-0.17976699769496918
4.52,-0.03209014609456062,-0.007323476951569319,0.000665770610794425,-0.017262998968362808,-0.9772504568099976,-0.1819629967212677
4.54,-0.04274247586727142,-0.006258244160562754,-0.0014646954368799925,-0.018727000802755356,-0.9782265424728394,-0.19269900023937225
4.56,-0.043807707726955414,-0.011584409512579441,0.004926702938973904,-0.019946999847888947,-0.9838384985923767,-0.18269500136375427
4.58,-0.06404713541269302,-0.017975807189941406,0.005991935729980469,-0.021654998883605003,-0.9863089919090271,-0.19343100488185883
4.6,-0.0991998240351677,-0.010519175790250301,0.000665770610794425,-0.027541501447558403,-0.9704185128211975,-0.18049900233745575
4.62,-0.10026505589485168,0.0033288532868027687,0.012383334338665009,-0.038521502166986465,-0.9626104831695557,-0.16241249442100525
4.64,-0.10239552706480026,0.031024912372231483,0.013448567129671574,-0.05612000450491905,-0.9738345146179199,-0.15655648708343506
4.66,-0.1205044835805893,0.07256899774074554,0.004926702938973904,-0.05612000450491905,-0.9738345146179199,-0.15655648708343506
4.68,-0.12370018661022186,0.09174319356679916,-0.0025299284607172012,-0.057339999824762344,-0.979446530342102,-0.16485249996185303
4.7,-0.12583065032958984,0.11078423261642456,-0.014247491955757141,-0.0516975000500679,-0.9752985239028931,-0.17586299777030945
4.72,-0.11837401986122131,0.1395455300807953,-0.02916075475513935,-0.0516975000500679,-0.9752985239028931,-0.17586299777030945
4.74,-0.1194392517209053,0.14700216054916382,-0.03768261894583702,-0.032421499490737915,-0.9616345167160034,-0.18684299290180206
4.76,-0.12796111404895782,0.15339355170726776,-0.03768261894583702,-0.021410999819636345,-0.9584320187568665,-0.19172300398349762
4.78,-0.13435252010822296,0.15232832729816437,-0.039813082665205,-0.010431000031530857,-0.9579439759254456,-0.21005350351333618
4.8,-0.1290263533592224,0.1395455300807953,-0.04194355010986328,0.005947500001639128,-0.9518439769744873,-0.22225350141525269
4.82,-0.0981345921754837,0.11824086308479309,-0.04300878196954727,0.007655499503016472,-0.957211971282959,-0.230335995554924
4.84,-0.054460037499666214,0.07150376588106155,-0.03661738336086273,0.018391499295830727,-0.9476959705352783,-0.23643600940704346
4.86,-0.03209014609456062,0.028894444927573204,-0.03342168778181076,0.025955500081181526,-0.9386680126190186,-0.23838798701763153
4.88,-0.008655018173158169,-0.006258244160562754,-0.0238345880061388,0.029889998957514763,-0.9498920440673828,-0.23375199735164642
4.9,0.0061250897124409676,-0.019041040912270546,-0.01744319126009941,0.02546750009059906,-0.9498920440673828,-0.23009200394153595
4.92,0.03808208182454109,-0.0712374597787857,0.005991935729980469,0.02668749913573265,-0.9450119733810425,-0.23375199735164642
4.94,0.06364767253398895,-0.0936073511838913,0.011318100616335869,-0.00750300008803606,-0.9537959694862366,-0.234484001994133
4.96,0.07003907114267349,-0.09786828607320786,0.02410089783370495,-0.0038429999258369207,-0.957211971282959,-0.23179998993873596
4.98,0.0689738392829895,-0.08934641629457474,0.02729659713804722,-0.01579900085926056,-0.9589504599571228,-0.22005750238895416
5,0.05938674136996269,-0.07975932210683823,0.03262276202440262,-0.020923001691699028,-0.9733465313911438,-0.21712949872016907
5.02,0.03488638252019882,-0.07443315535783768,0.02729659713804722,-0.01579900085926056,-0.9767624735832214,-0.21005350351333618
5.04,-0.008655018173158169,-0.05312849581241608,0.015579032711684704,-0.01701899990439415,-0.9618784785270691,-0.20614950358867645
5.06,-0.037416309118270874,-0.033954303711652756,0.0027962366584688425,-0.010431000031530857,-0.9537959694862366,-0.204197496175766
5.08,-0.04913387447595596,-0.026497671380639076,-0.009986559860408306,-0.010431000031530857,-0.9537959694862366,-0.204197496175766
5.1,-0.06404713541269302,-0.021171506494283676,-0.012117025442421436,-0.010919000022113323,-0.9672464728355408,-0.20492950081825256
5.12,-0.08535179495811462,-0.015845341607928276,-0.008921326138079166,-0.03266550227999687,-0.937936007976532,-0.19147899746894836
5.14,-0.08535179495811462,-0.026497671380639076,-0.03768261894583702,-0.04218149930238724,-0.9982650279998779,-0.19196699559688568
5.16,-0.11091738939285278,-0.03288906812667847,-0.05792204663157463,-0.0319334976375103,-1.0087569952011108,-0.1836709976196289
5.18,-0.13222205638885498,-0.020106272771954536,-0.04726971685886383,-0.022874999791383743,-1.0029009580612183,-0.17805899679660797
5.2,-0.1396786868572235,-0.022236740216612816,-0.04833494871854782,-0.016774998977780342,-0.9796904921531677,-0.19196699559688568
5.22,-0.1418091505765915,-0.024367205798625946,-0.04726971685886383,-0.016774998977780342,-0.9796904921531677,-0.19196699559688568
5.24,-0.13861344754695892,-0.019041040912270546,-0.04513924941420555,-0.016042999923229218,-0.9611465334892273,-0.21298149228096008
5.26,-0.12476541846990585,-0.012649642303586006,-0.04300878196954727,-0.019214998930692673,-0.9547720551490784,-0.22176551818847656
5.28,-0.10239552706480026,0.008655018173158169,-0.03768261894583702,-0.02580299973487854,-0.9533079862594604,-0.23009200394153595
5.3,-0.0991998240351677,0.04593817517161369,-0.02703028731048107,-0.02433899976313114,-0.9564799666404724,-0.22960399091243744
5.32,-0.11198262125253677,0.06511236727237701,-0.03129122033715248,-0.010919000022113323,-0.9418400526046753,-0.23546001315116882
5.34,-0.10665645450353622,0.06511236727237701,-0.01957365684211254,0.022539500147104263,-0.9117974638938904,-0.24692799150943756
5.36,-0.058720968663692474,0.015046416781842709,0.004926702938973904,0.022539500147104263,-0.9117974638938904,-0.24692799150943756
5.38,0.002929390873759985,-0.023301972076296806,0.04647079110145569,0.05185000225901604,-0.9305854439735413,-0.24814799427986145
5.4,0.05406057462096214,-0.026497671380639076,0.09227581322193146,0.02156350016593933,-0.9525759816169739,-0.24644000828266144
5.42,0.027429750189185143,-0.10958584398031235,0.09547150880098343,-0.03388550132513046,-0.999972939491272,-0.20566150546073914
5.44,-0.23022349178791046,0.13528458774089813,0.04966649040579796,-0.020191000774502754,-0.9161894917488098,-0.22935999929904938
5.46,-0.23022349178791046,0.012915950268507004,0.06457975506782532,-0.08567450195550919,-0.9367160201072693,-0.22545598447322845
5.48,0.03169068321585655,0.021437814459204674,0.08481918275356293,-0.051209498196840286,-0.9164334535598755,-0.24644000828266144
5.5,0.4098483920097351,-0.022236740216612816,0.06138405203819275,-0.0394974984228611,-0.9117974638938904,-0.23399598896503448
5.52,0.5632419586181641,-0.015845341607928276,-0.013182258233428001,-0.04779350012540817,-0.9882610440254211,-0.2332640141248703
5.54,0.5802856683731079,-0.04673709720373154,-0.06431344151496887,0.003995500039309263,-0.9799345135688782,-0.21590949594974518
5.56,0.337412565946579,-0.07549838721752167,-0.06218297779560089,-0.012382999993860722,-1.0111969709396362,-0.21078549325466156
5.58,0.016777420416474342,-0.029693370684981346,0.06244928762316704,0.035746000707149506,-0.9555040001869202,-0.18220700323581696
5.6,-0.15565717220306396,0.015046416781842709,0.10612384229898453,0.041113998740911484,-0.9472079873085022,-0.20078149437904358
5.62,-0.13328728079795837,-0.005193010903894901,0.07523208111524582,0.010827499441802502,-0.9904569983482361,-0.23546001315116882
5.64,0.06364767253398895,-0.06697652488946915,0.04753602296113968,-0.02433899976313114,-0.964074432849884,-0.247172012925148
5.66,0.1978670358657837,-0.09999874979257584,0.02836182899773121,-0.028273500502109528,-0.9491599798202515,-0.22030149400234222
5.68,0.1531272530555725,-0.08615072071552277,0.007057168986648321,-0.026290997862815857,-0.9533079862594604,-0.2076134830713272
5.7,0.07430000603199005,-0.06378082931041718,-0.02489982172846794,-0.021167000755667686,-0.9713944792747498,-0.22887201607227325
5.72,0.023168819025158882,-0.08082455396652222,-0.04940018057823181,-0.021167000755667686,-0.9713944792747498,-0.22887201607227325
5.74,0.017842652276158333,-0.08508548885583878,-0.03661738336086273,-0.010919000022113323,-0.9750545024871826,-0.2163975089788437
5.76,0.008255556225776672,-0.07549838721752167,-0.04087831825017929,-0.010919000022113323,-0.9750545024871826,-0.2163975089788437
5.78,-0.034220609813928604,-0.061650361865758896,-0.04300878196954727,0.0027754998300224543,-0.9752985239028931,-0.21712949872016907
5.8,-0.08854749798774719,-0.028628136962652206,-0.005725627299398184,0.003019500058144331,-0.944767951965332,-0.20785750448703766
5.82,-0.2248973250389099,0.051264338195323944,0.04007939249277115,0.003019500058144331,-0.944767951965332,-0.20785750448703766
5.84,-0.4933360517024994,0.34620073437690735,0.04114462435245514,-0.033641502261161804,-0.8768749833106995,-0.21712949872016907
5.86,-0.8841434121131897,0.7955959439277649,0.04434032365679741,-0.03046949952840805,-0.9232655167579651,-0.2029774934053421
5.88,-1.1206251382827759,1.2121020555496216,0.01983996480703354,-0.03339749947190285,-1.0598139762878418,-0.22765198349952698
5.9,-0.7978595495223999,0.7083799839019775,-0.08029194176197052,-0.03339749947190285,-1.0598139762878418,-0.22765198349952698
5.92,-0.3537905216217041,0.2748301327228546,-0.17083674669265747,-0.0035989999305456877,-1.0090008974075317,-0.29432499408721924
5.94,0.13821399211883545,0.0011983871227130294,0.000665770610794425,0.03745400160551071,-0.8783390522003174,-0.2777024805545807
5.96,0.4205007255077362,-0.14899946749210358,0.04327509179711342,0.025955500081181526,-0.8927350044250488,-0.2938370108604431
5.98,0.45778387784957886,-0.19054356217384338,0.03901416063308716,0.006679500453174114,-0.9027389883995056,-0.2655025124549866
6,0.3544562757015228,-0.17030413448810577,0.02942706272006035,0.006679500453174114,-0.9027389883995056,-0.2655025124549866
6.02,0.2085193693637848,-0.09786828607320786,-0.0025299284607172012,-0.03168949857354164,-0.9774945378303528,-0.22960399091243744
6.04,0.17123620212078094,-0.09573781490325928,-0.008921326138079166,-0.011895000003278255,-0.9770064353942871,-0.2508319914340973
6.06,0.18082331120967865,-0.10106398165225983,-0.014247491955757141,-0.001158999977633357,-0.9740785360336304,-0.263794481754303
6.08,0.14780108630657196,-0.08934641629457474,-0.01957365684211254,-0.001158999977633357,-0.9740785360336304,-0.263794481754303
6.1,0.09134373068809509,-0.05632419511675835,-0.0025299284607172012,0.014487499371170998,-0.9323239326477051,-0.24985599517822266
6.12,0.14780108630657196,-0.08828118443489075,0.03794892504811287,-0.0035989999305456877,-0.9401319622993469,-0.23424001038074493
6.14,0.19147562980651855,-0.12769481539726257,0.05073172226548195,-0.005307000130414963,-0.9555040001869202,-0.23692399263381958
6.16,0.17869283258914948,-0.11065108329057693,0.04966649040579796,0.0035075002815574408,-0.9511120319366455,-0.2320440113544464
6.18,0.164844810962677,-0.08082455396652222,0.04114462435245514,0.005459500011056662,-0.9559919834136963,-0.2315559983253479
6.2,0.15632294118404388,-0.06697652488946915,0.01664426550269127,0.0003355000226292759,-0.9770064353942871,-0.23399598896503448
6.22,0.10838746279478073,-0.033954303711652756,0.0017310036346316338,0.0003355000226292759,-0.9770064353942871,-0.23399598896503448
6.24,0.002929390873759985,0.013981183059513569,-0.02809552103281021,-0.009699000045657158,-0.9865529537200928,-0.2244800180196762
6.26,-0.034220609813928604,0.028894444927573204,-0.03874785080552101,-0.020923001691699028,-0.9648065567016602,-0.21151749789714813
6.28,-0.005459319334477186,0.015046416781842709,-0.02276935614645481,-0.001891000079922378,-0.95306396484375,-0.2185935080051422
6.3,0.030625449493527412,-0.012649642303586006,-0.008921326138079166,0.008143500424921513,-0.9618784785270691,-0.22716400027275085
6.32,0.03914731368422508,-0.025432437658309937,-0.005725627299398184,0.005703500006347895,-0.9699305295944214,-0.22423599660396576
6.34,0.017842652276158333,-0.033954303711652756,-0.008921326138079166,-0.0009150000405497849,-0.9721264839172363,-0.2134695053100586
6.36,-0.009720250964164734,-0.026497671380639076,-0.009986559860408306,-0.01384699996560812,-0.965538501739502,-0.21566550433635712
6.38,-0.021437814459204674,-0.015845341607928276,-0.005725627299398184,-0.01701899990439415,-0.9635864496231079,-0.21615348756313324
6.4,-0.024633513763546944,0.016111649572849274,-0.02063889056444168,-0.028761500492691994,-0.9589504599571228,-0.2181054949760437
6.42,-0.07256899774074554,0.04274247586727142,-0.0185084231197834,-0.028517499566078186,-0.9557480216026306,-0.21566550433635712
6.44,-0.12796111404895782,0.05978620424866676,-0.012117025442421436,-0.03266550227999687,-0.9828625321388245,-0.20980948209762573
6.46,-0.10772168636322021,0.07150376588106155,0.02729659713804722,-0.010919000022113323,-0.9670025110244751,-0.20492950081825256
6.48,-0.012915950268507004,0.027829213067889214,0.03794892504811287,0.008631499484181404,-0.9411080479621887,-0.21712949872016907
6.5,0.025299284607172012,0.021437814459204674,0.0347532257437706,0.00375150004401803,-0.9518439769744873,-0.2257000058889389
6.52,-0.018242115154862404,0.018242115154862404,0.02836182899773121,0.009363500401377678,-0.9652945399284363,-0.2269200086593628
6.54,-0.05659050494432449,0.010785484686493874,0.02729659713804722,-0.0016469999682158232,-0.9677344560623169,-0.22249749302864075
6.56,-0.031024912372231483,-0.0030625448562204838,0.03262276202440262,-0.0014029999729245901,-0.9576999545097351,-0.22200950980186462
6.58,-0.004394086077809334,-0.010519175790250301,0.02623136341571808,-0.00506300013512373,-0.9491599798202515,-0.21908150613307953
6.6,-0.013981183059513569,-0.006258244160562754,-0.00359516148455441,-0.0031109999399632215,-0.9557480216026306,-0.2185935080051422
6.62,-0.041677240282297134,0.017176883295178413,-0.02809552103281021,-0.002379000186920166,-0.9564799666404724,-0.22887201607227325
6.64,-0.066177599132061,0.037416309118270874,-0.0185084231197834,0.0027754998300224543,-0.9609025120735168,-0.2257000058889389
6.66,-0.06298190355300903,0.021437814459204674,-0.02170412242412567,-0.001158999977633357,-0.9628545045852661,-0.23058000206947327
6.68,-0.09387365728616714,0.021437814459204674,-0.01744319126009941,-0.0038429999258369207,-0.9523320198059082,-0.22225350141525269
6.7,-0.09174319356679916,0.021437814459204674,-0.013182258233428001,-0.001891000079922378,-0.9713944792747498,-0.22618800401687622
6.72,-0.07043853402137756,0.012915950268507004,-0.007856093347072601,-0.004819000139832497,-0.9709064960479736,-0.22838400304317474
6.74,-0.034220609813928604,0.0001331541279796511,-0.0025299284607172012,-0.0070150005631148815,-0.966514527797699,-0.23399598896503448
6.76,-0.010785484686493874,-0.0030625448562204838,0.005991935729980469,-0.01140700001269579,-0.957211971282959,-0.2281399965286255
6.78,-0.019307348877191544,0.005459319334477186,-0.0003994623839389533,-0.011651000007987022,-0.9579439759254456,-0.22618800401687622
6.8,-0.041677240282297134,0.010785484686493874,-0.01637795753777027,-0.011651000007987022,-0.9679784774780273,-0.22545598447322845
6.82,-0.054460037499666214,0.006524552125483751,-0.03022598661482334,-0.01140700001269579,-0.9581879377365112,-0.23375199735164642
6.84,-0.08215609937906265,-0.001997311832383275,-0.03342168778181076,0.0010674999793991446,-0.9594384431838989,-0.23643600940704346
6.86,-0.0981345921754837,-0.016910573467612267,-0.013182258233428001,0.013267499394714832,-0.9650505185127258,-0.23424001038074493
6.88,-0.057655736804008484,-0.060585130006074905,-0.009986559860408306,0.03379400074481964,-0.9464760422706604,-0.23814399540424347
6.9,-0.043807707726955414,-0.057389430701732635,-0.0185084231197834,0.016195500269532204,-0.9479399919509888,-0.2437559962272644
6.92,-0.07363422960042953,-0.031823836266994476,-0.02916075475513935,0.0020435000769793987,-0.9569680094718933,-0.23546001315116882
6.94,-0.08961272984743118,-0.012649642303586006,-0.03555215150117874,-0.009455000050365925,-0.9467200040817261,-0.22838400304317474
6.96,-0.06937330216169357,-0.023301972076296806,-0.03448691964149475,-0.007991000078618526,-0.9455000758171082,-0.24570800364017487
6.98,-0.041677240282297134,-0.024367205798625946,-0.03022598661482334,-0.011651000007987022,-0.9547720551490784,-0.24058398604393005
7,-0.012915950268507004,-0.026497671380639076,-0.014247491955757141,-0.012870999053120613,-0.9626104831695557,-0.240339994430542
7.02,0.0007989247678779066,-0.037150003015995026,-0.0003994623839389533,-0.007259000092744827,-0.9696865081787109,-0.2420480102300644
7.04,-0.015046416781842709,-0.013714875094592571,-0.01637795753777027,-0.02336299978196621,-0.9711505174636841,-0.230335995554924
7.06,-0.06298190355300903,0.011850717477500439,-0.0025299284607172012,-0.01067500002682209,-0.9518439769744873,-0.22765198349952698
7.08,-0.007589785382151604,0.024633513763546944,-0.00359516148455441,-0.020434999838471413,-0.9562360048294067,-0.24302400648593903
7.1,0.03808208182454109,0.06298190355300903,-0.0025299284607172012,-0.02949349954724312,-0.9476959705352783,-0.23985201120376587
7.12,0.011451254598796368,0.0981345921754837,-0.012117025442421436,-0.03217750042676926,-0.9594384431838989,-0.24180401861667633
7.14,-0.051264338195323944,0.11184946447610855,-0.02489982172846794,-0.012626999989151955,-0.961390495300293,-0.2349720001220703
7.16,-0.10346075892448425,0.11930610239505768,-0.02916075475513935,0.007411499973386526,-0.964318573474884,-0.23009200394153595
7.18,-0.0991998240351677,0.08215609937906265,-0.02703028731048107,0.007411499973386526,-0.964318573474884,-0.23009200394153595
7.2,-0.08002562820911407,0.037416309118270874,0.0038614696823060513,0.04867799952626228,-0.9389119744300842,-0.2525705099105835
7.22,-0.009720250964164734,-0.010519175790250301,0.02516612969338894,0.04330999776721001,-0.9286335110664368,-0.2618425190448761
7.24,0.03595161437988281,-0.048867564648389816,0.04114462435245514,0.04794600233435631,-0.9369600415229797,-0.2642824947834015
7.26,-0.010785484686493874,-0.022236740216612816,0.004926702938973904,0.004483500029891729,-0.9279015064239502,-0.2547664940357208
7.28,-0.061916667968034744,0.0001331541279796511,-0.02703028731048107,-0.0014029999729245901,-0.9374480247497559,-0.2515944838523865
7.3,-0.08535179495811462,0.024633513763546944,-0.0504654161632061,0.006191499996930361,-0.940619945526123,-0.25525447726249695
7.32,-0.09174319356679916,0.06298190355300903,-0.06005251035094261,-0.0001829999964684248,-0.9445239901542664,-0.25452250242233276
7.34,-0.12263495475053787,0.10239552706480026,-0.05685681104660034,0.016439499333500862,-0.9606585502624512,-0.25940248370170593
7.36,-0.16524426639080048,0.12995843589305878,-0.06218297779560089,0.016439499333500862,-0.9706624746322632,-0.2640385031700134
7.38,-0.17696183919906616,0.14167599380016327,-0.03448691964149475,0.022295501083135605,-0.968222439289093,-0.26037850975990295
7.4,-0.1844184696674347,0.18535055220127106,-0.03661738336086273,0.0013114999746903777,-0.9555040001869202,-0.26037850975990295
7.42,-0.13435252010822296,0.1501978635787964,-0.012117025442421436,-0.015066999942064285,-0.9425719976425171,-0.2572064995765686
7.44,-0.050199106335639954,0.07896039634943008,0.0038614696823060513,-0.004819000139832497,-0.940619945526123,-0.2681864798069
7.46,0.03488638252019882,-0.020106272771954536,0.02197043038904667,0.018391499295830727,-0.9408639669418335,-0.2713584899902344
7.48,0.09134373068809509,-0.07656362652778625,0.01877473294734955,0.029158001765608788,-0.9374480247497559,-0.2752625048160553
7.5,0.10519175976514816,-0.11597724258899689,0.010252867825329304,0.03184200078248978,-0.9418400526046753,-0.2799290120601654
7.52,0.09240896254777908,-0.1255643367767334,0.0017310036346316338,0.02693150006234646,-0.9415960311889648,-0.26965051889419556
7.54,0.06471290439367294,-0.1149120107293129,-0.0003994623839389533,0.023515500128269196,-0.9425719976425171,-0.26672250032424927
7.56,0.04127778112888336,-0.09573781490325928,-0.007856093347072601,0.01424350030720234,-0.94623202085495,-0.27379849553108215
7.58,-0.007589785382151604,-0.044606633484363556,-0.0014646954368799925,0.016439499333500862,-0.9589504599571228,-0.27087050676345825
7.6,-0.034220609813928604,-0.020106272771954536,-0.004660394508391619,0.009607499465346336,-0.9464760422706604,-0.2659904956817627
7.62,-0.058720968663692474,-0.0009320789249613881,-0.007856093347072601,0.007167499978095293,-0.9476959705352783,-0.2672105133533478
7.64,-0.06298190355300903,0.006524552125483751,-0.004660394508391619,0.013267499394714832,-0.9469640254974365,-0.2701385021209717
7.66,-0.04593817517161369,0.004394086077809334,-0.00359516148455441,0.0049715000204741955,-0.9506240487098694,-0.26672250032424927
7.68,-0.025698747485876083,-0.009453942999243736,-0.005725627299398184,0.007167499978095293,-0.9467200040817261,-0.2716025114059448
7.7,-0.009720250964164734,-0.021171506494283676,-0.006790860556066036,0.01277950033545494,-0.9542840719223022,-0.26623451709747314
7.72,0.0061250897124409676,-0.035019535571336746,-0.0025299284607172012,0.01424350030720234,-0.9464760422706604,-0.2728224992752075
7.74,0.019973119720816612,-0.031823836266994476,-0.006790860556066036,0.022539500147104263,-0.9411080479621887,-0.2684305012226105
7.76,0.012516488321125507,-0.028628136962652206,-0.006790860556066036,0.021075500175356865,-0.9413520693778992,-0.2684305012226105
7.78,0.00399462366476655,-0.022236740216612816,-0.009986559860408306,0.014487499371170998,-0.9381800293922424,-0.26965051889419556
7.8,-0.007589785382151604,-0.014780107885599136,-0.007856093347072601,0.014487499371170998,-0.9381800293922424,-0.26965051889419556
7.82,-0.021437814459204674,0.0011983871227130294,-0.00359516148455441,0.010583500377833843,-0.9472079873085022,-0.27672648429870605
7.84,-0.031024912372231483,0.008655018173158169,-0.0014646954368799925,0.012047499418258667,-0.9486719965934753,-0.26574650406837463
7.86,-0.03209014609456062,0.006524552125483751,0.0017310036346316338,0.014731500297784805,-0.9467200040817261,-0.2730664908885956
7.88,-0.029959678649902344,0.007589785382151604,-0.00359516148455441,0.014731500297784805,-0.9467200040817261,-0.2730664908885956
7.9,-0.023568280041217804,0.004394086077809334,-0.0025299284607172012,0.00692349998280406,-0.9496479630470276,-0.27331048250198364
7.92,-0.015046416781842709,0.0001331541279796511,0.000665770610794425,0.010095500387251377,-0.9459880590438843,-0.2740425169467926
7.94,-0.018242115154862404,0.006524552125483751,-0.0025299284607172012,0.010827499441802502,-0.9428160190582275,-0.26867449283599854
7.96,-0.013981183059513569,0.011850717477500439,-0.00359516148455441,0.017659500241279602,-0.942084014415741,-0.2701385021209717
7.98,-0.021437814459204674,0.022503048181533813,-0.00359516148455441,0.01424350030720234,-0.9433040022850037,-0.2735545039176941
8,-0.020372580736875534,0.022503048181533813,-0.0003994623839389533,0.01790350116789341,-0.9413520693778992,-0.2730664908885956
8.02,-0.021437814459204674,0.026763979345560074,0.0017310036346316338,0.014975500293076038,-0.9423280358314514,-0.2745305001735687
8.04,-0.021437814459204674,0.021437814459204674,0.0027962366584688425,0.022539500147104263,-0.9455000758171082,-0.27428650856018066
8.06,-0.017176883295178413,0.021437814459204674,0.000665770610794425,0.018391499295830727,-0.9442799687385559,-0.2711144983768463
8.08,-0.017176883295178413,0.018242115154862404,0.004926702938973904,0.01351150032132864,-0.9437919855117798,-0.27038249373435974
8.1,-0.012915950268507004,0.013981183059513569,0.008122402243316174,0.01668350026011467,-0.9484279751777649,-0.2718465030193329
8.12,-0.011850717477500439,0.011850717477500439,0.010252867825329304,0.015463500283658504,-0.9450119733810425,-0.27672648429870605
8.14,-0.007589785382151604,0.012915950268507004,0.010252867825329304,0.017171500250697136,-0.9445239901542664,-0.27379849553108215
8.16,-0.006524552125483751,0.012915950268507004,0.011318100616335869,0.016195500269532204,-0.9464760422706604,-0.27672648429870605
8.18,-0.006524552125483751,0.006524552125483751,0.014513799920678139,0.012535500340163708,-0.9396439790725708,-0.27672648429870605
8.2,-0.006524552125483751,0.013981183059513569,0.012383334338665009,0.017171500250697136,-0.9430599808692932,-0.2752625048160553
8.22,-0.004394086077809334,0.013981183059513569,0.01770949922502041,0.014487499371170998,-0.9433040022850037,-0.2823689877986908
8.24,-0.0033288532868027687,0.011850717477500439,0.01664426550269127,0.01351150032132864,-0.9403759837150574,-0.27501851320266724
8.26,0.0018641578499227762,0.015046416781842709,0.01770949922502041,0.01351150032132864,-0.9396439790725708,-0.28261297941207886
8.28,0.0018641578499227762,0.016111649572849274,0.014513799920678139,0.00789950042963028,-0.9423280358314514,-0.27331048250198364
8.3,0.002929390873759985,0.017176883295178413,0.011318100616335869,0.011315500363707542,-0.9386680126190186,-0.28139299154281616
8.32,0.00399462366476655,0.019307348877191544,0.005991935729980469,0.018391499295830727,-0.9372040629386902,-0.2728224992752075
8.34,0.00399462366476655,0.017176883295178413,0.010252867825329304,0.012047499418258667,-0.9433040022850037,-0.28090500831604004
8.36,0.0050598569214344025,0.013981183059513569,0.015579032711684704,0.012047499418258667,-0.9433040022850037,-0.28090500831604004
8.38,0.0050598569214344025,0.009720250964164734,0.013448567129671574,0.013023500330746174,-0.940619945526123,-0.2816369831562042
8.4,0.009320789016783237,0.013981183059513569,0.012383334338665009,0.017171500250697136,-0.9440360069274902,-0.28139299154281616
8.42,0.010386021807789803,0.016111649572849274,0.011318100616335869,0.017171500250697136,-0.9440360069274902,-0.28139299154281616
8.44,0.009320789016783237,0.011850717477500439,0.014513799920678139,0.016195500269532204,-0.9403759837150574,-0.27623850107192993
8.46,0.0061250897124409676,0.009720250964164734,0.009187635034322739,0.016439499333500862,-0.9442799687385559,-0.28041699528694153
8.48,0.008255556225776672,0.009720250964164734,0.014513799920678139,0.018879499286413193,-0.9372040629386902,-0.28383299708366394
8.5,0.010386021807789803,0.008655018173158169,0.010252867825329304,0.013023500330746174,-0.9374480247497559,-0.28139299154281616
8.52,0.010386021807789803,0.004394086077809334,0.013448567129671574,0.01033950038254261,-0.9423280358314514,-0.2848089933395386
8.54,0.010386021807789803,0.006524552125483751,0.014513799920678139,0.011559500358998775,-0.9401319622993469,-0.28041699528694153
8.56,0.011451254598796368,0.006524552125483751,0.014513799920678139,0.015463500283658504,-0.9413520693778992,-0.2799290120601654
8.58,0.012516488321125507,0.004394086077809334,0.01770949922502041,0.015463500283658504,-0.9413520693778992,-0.2799290120601654
8.6,0.014646953903138638,0.004394086077809334,0.015579032711684704,0.014975500293076038,-0.9430599808692932,-0.28383299708366394
8.62,0.016777420416474342,0.004394086077809334,0.01664426550269127,0.016439499333500862,-0.9398880004882812,-0.2870049774646759
8.64,0.017842652276158333,0.00226362026296556,0.01664426550269127,0.014731500297784805,-0.9359839558601379,-0.2823689877986908
8.66,0.017842652276158333,0.0033288532868027687,0.01770949922502041,0.019855501130223274,-0.9367160201072693,-0.2818810045719147
8.68,0.023168819025158882,0.004394086077809334,0.01770949922502041,0.018147500231862068,-0.9413520693778992,-0.28310099244117737
8.7,0.019973119720816612,0.007589785382151604,0.02197043038904667,0.013999500311911106,-0.9433040022850037,-0.288224995136261
8.72,0.026364516466856003,0.004394086077809334,0.01877473294734955,0.013023500330746174,-0.9374480247497559,-0.28212499618530273
8.74,0.03382114693522453,0.004394086077809334,0.01983996480703354,0.015219499357044697,-0.9423280358314514,-0.27794650197029114
8.76,0.03488638252019882,-0.0009320789249613881,0.02410089783370495,0.015463500283658504,-0.9374480247497559,-0.27794650197029114
8.78,0.03488638252019882,-0.005193010903894901,0.02090519852936268,0.015951499342918396,-0.937936007976532,-0.276482492685318
8.8,0.04127778112888336,-0.008388710208237171,0.02410089783370495,0.016439499333500862,-0.9391559958457947,-0.27209049463272095
8.82,0.04553871229290962,-0.007323476951569319,0.03049229457974434,0.010583500377833843,-0.9411080479621887,-0.26623451709747314
8.84,0.05193011090159416,-0.009453942999243736,0.03262276202440262,0.01033950038254261,-0.942084014415741,-0.27379849553108215
8.86,0.05299534276127815,-0.013714875094592571,0.03581846132874489,0.01351150032132864,-0.9423280358314514,-0.2757504880428314
8.88,0.05619104206562042,-0.019041040912270546,0.0347532257437706,0.013999500311911106,-0.9408639669418335,-0.2716025114059448
8.9,0.06151720881462097,-0.022236740216612816,0.03581846132874489,0.0049715000204741955,-0.9415960311889648,-0.2601344883441925
8.92,0.06684337556362152,-0.024367205798625946,0.03155753016471863,0.006191499996930361,-0.9445239901542664,-0.26281848549842834
8.94,0.07110430300235748,-0.030758604407310486,0.02623136341571808,0.007655499503016472,-0.9459880590438843,-0.26208651065826416
8.96,0.07962616533041,-0.03288906812667847,0.02197043038904667,0.008143500424921513,-0.9481840133666992,-0.2483920156955719
8.98,0.08175663650035858,-0.035019535571336746,0.02197043038904667,-0.00042699999175965786,-0.9496479630470276,-0.25232651829719543
9,0.09134373068809509,-0.048867564648389816,0.03049229457974434,-0.0009150000405497849,-0.9450119733810425,-0.24912399053573608
9.02,0.08708280324935913,-0.045671865344047546,0.0347532257437706,-0.0038429999258369207,-0.9535519480705261,-0.2530584931373596
9.04,0.08282186836004257,-0.050998032093048096,0.03049229457974434,-0.005307000130414963,-0.9587064981460571,-0.2513504922389984
9.06,0.07749570161104202,-0.05632419511675835,0.02942706272006035,-0.0026229999493807554,-0.9542840719223022,-0.2437559962272644
9.08,0.07430000603199005,-0.057389430701732635,0.03049229457974434,-0.008723000064492226,-0.95306396484375,-0.24619601666927338
9.1,0.06684337556362152,-0.050998032093048096,0.03155753016471863,-0.012138999998569489,-0.9540400505065918,-0.24400001764297485
9.12,0.07003907114267349,-0.045671865344047546,0.03155753016471863,-0.015066999942064285,-0.9569680094718933,-0.2396080046892166
9.14,0.07110430300235748,-0.040345702320337296,0.03581846132874489,-0.015066999942064285,-0.9630984663963318,-0.24302400648593903
9.16,0.07003907114267349,-0.03928046673536301,0.03581846132874489,-0.016287000849843025,-0.9606585502624512,-0.23594799637794495
9.18,0.06684337556362152,-0.027562905102968216,0.03262276202440262,-0.016530999913811684,-0.9564799666404724,-0.23838798701763153
9.2,0.06258244067430496,-0.017975807189941406,0.03155753016471863,-0.016530999913811684,-0.9564799666404724,-0.23838798701763153
9.22,0.06045197322964668,-0.012649642303586006,0.02090519852936268,-0.021167000755667686,-0.9591944813728333,-0.22618800401687622
9.24,0.05619104206562042,-0.012649642303586006,0.01983996480703354,-0.01970299892127514,-0.9677344560623169,-0.2281399965286255
9.26,0.03275591507554054,-0.0009320789249613881,0.005991935729980469,-0.02433899976313114,-0.9740785360336304,-0.23009200394153595
9.28,0.008255556225776672,0.00226362026296556,0.007057168986648321,-0.02433899976313114,-0.978470504283905,-0.22789600491523743
9.3,-0.00226362026296556,0.007589785382151604,0.015579032711684704,-0.023850999772548676,-0.9750545024871826,-0.22960399091243744
9.32,-0.006524552125483751,0.0033288532868027687,0.012383334338665009,-0.026778999716043472,-0.9648065567016602,-0.2281399965286255
9.34,-0.010785484686493874,0.004394086077809334,0.012383334338665009,-0.02702300064265728,-0.9596824645996094,-0.22667601704597473
9.36,-0.007589785382151604,0.0033288532868027687,0.010252867825329304,-0.026047000661492348,-0.9516000151634216,-0.21786150336265564
9.38,-0.0033288532868027687,0.0011983871227130294,0.008122402243316174,-0.026778999716043472,-0.9508680105209351,-0.21395748853683472
9.4,-0.0001331541279796511,0.0033288532868027687,0.008122402243316174,-0.026778999716043472,-0.9516000151634216,-0.21371349692344666
9.42,0.009320789016783237,0.008655018173158169,0.010252867825329304,-0.028761500492691994,-0.9540400505065918,-0.21249349415302277
9.44,0.013581721112132072,0.012915950268507004,0.015579032711684704,-0.028273500502109528,-0.9518439769744873,-0.2151774913072586
9.46,0.016777420416474342,0.013981183059513569,0.02623136341571808,-0.028273500502109528,-0.9518439769744873,-0.2151774913072586
9.48,0.023168819025158882,0.016111649572849274,0.02942706272006035,-0.02702300064265728,-0.9557480216026306,-0.21542151272296906
9.5,0.026364516466856003,0.018242115154862404,0.02729659713804722,-0.02555900067090988,-0.9576999545097351,-0.21078549325466156
9.52,0.028494983911514282,0.016111649572849274,0.02410089783370495,-0.016774998977780342,-0.9604145288467407,-0.211029514670372
9.54,0.03275591507554054,0.012915950268507004,0.012383334338665009,-0.01823900081217289,-0.9674904942512512,-0.21420150995254517
9.56,0.03169068321585655,0.006524552125483751,0.0038614696823060513,-0.017994999885559082,-0.9762744903564453,-0.21493349969387054
9.58,0.029560215771198273,0.005459319334477186,0.0038614696823060513,-0.019214998930692673,-0.9777385592460632,-0.2076134830713272
9.6,0.03275591507554054,-0.0030625448562204838,0.008122402243316174,-0.015066999942064285,-0.9748104810714722,-0.20956549048423767
9.62,0.03914731368422508,-0.010519175790250301,0.0027962366584688425,-0.015066999942064285,-0.9748104810714722,-0.20956549048423767
9.64,0.03914731368422508,-0.022236740216612816,-0.00359516148455441,-0.009943000040948391,-0.9628545045852661,-0.21151749789714813
9.66,0.04340824484825134,-0.029693370684981346,-0.013182258233428001,-0.004819000139832497,-0.955016016960144,-0.20907750725746155
9.68,0.04447348043322563,-0.041410934180021286,-0.02170412242412567,-0.004819000139832497,-0.955016016960144,-0.20907750725746155
9.7,0.03808208182454109,-0.044606633484363556,-0.02703028731048107,-0.01067500002682209,-0.957211971282959,-0.2122495025396347
9.72,0.025299284607172012,-0.04993279650807381,-0.02916075475513935,-0.009455000050365925,-0.9547720551490784,-0.21029749512672424
9.74,0.018907885998487473,-0.054193731397390366,-0.02063889056444168,-0.016530999913811684,-0.9576999545097351,-0.21029749512672424
9.76,0.00719032296910882,-0.048867564648389816,-0.014247491955757141,-0.016530999913811684,-0.9576999545097351,-0.21029749512672424
9.78,0.0050598569214344025,-0.042476166039705276,-0.013182258233428001,-0.020191000774502754,-0.9576999545097351,-0.21200551092624664
9.8,-0.0011983871227130294,-0.024367205798625946,-0.015312724746763706,-0.025314999744296074,-0.9594384431838989,-0.2059054970741272
9.82,-0.00226362026296556,-0.015845341607928276,-0.01744319126009941,-0.02458300068974495,-0.9611465334892273,-0.20444151759147644
9.84,0.0018641578499227762,-0.007323476951569319,-0.01744319126009941,-0.02702300064265728,-0.9562360048294067,-0.2093214988708496
9.86,0.0061250897124409676,0.004394086077809334,-0.013182258233428001,-0.025314999744296074,-0.9576999545097351,-0.20566150546073914
9.88,0.00399462366476655,0.013981183059513569,-0.012117025442421436,-0.028761500492691994,-0.964074432849884,-0.21029749512672424
9.9,-0.007589785382151604,0.031024912372231483,-0.006790860556066036,-0.024094998836517334,-0.9706624746322632,-0.2093214988708496
9.92,-0.010785484686493874,0.034220609813928604,-0.004660394508391619,-0.024826999753713608,-0.9696865081787109,-0.21005350351333618
9.94,-0.018242115154862404,0.033155377954244614,-0.004660394508391619,-0.01823900081217289,-0.9733465313911438,-0.21151749789714813
9.96,-0.022503048181533813,0.03954677656292915,-0.0014646954368799925,-0.01823900081217289,-0.9696865081787109,-0.20956549048423767
9.98,-0.019307348877191544,0.031024912372231483,0.010252867825329304,-0.022631000727415085,-0.9696865081787109,-0.2117614895105362
10,-0.022503048181533813,0.028894444927573204,0.01664426550269127,-0.02067900076508522,-0.9591944813728333,-0.21127350628376007
10.02,-0.021437814459204674,0.024633513763546944,0.01877473294734955,-0.020923001691699028,-0.9581879377365112,-0.2071254998445511
10.04,-0.020372580736875534,0.019307348877191544,0.02197043038904667,-0.02555900067090988,-0.9557480216026306,-0.21029749512672424
10.06,-0.017176883295178413,0.017176883295178413,0.01983996480703354,-0.01579900085926056,-0.9555040001869202,-0.20858949422836304
10.08,-0.018242115154862404,0.013981183059513569,0.02197043038904667,-0.01823900081217289,-0.959926426410675,-0.2093214988708496
10.1,-0.016111649572849274,0.016111649572849274,0.02303566411137581,-0.016774998977780342,-0.9616345167160034,-0.2151774913072586
10.12,-0.015046416781842709,0.017176883295178413,0.01770949922502041,-0.017751000821590424,-0.9689545631408691,-0.20858949422836304
10.14,-0.007589785382151604,0.013981183059513569,0.015579032711684704,-0.017994999885559082,-0.9694425463676453,-0.21737349033355713
10.16,-0.0033288532868027687,0.008655018173158169,0.005991935729980469,-0.011163000017404556,-0.9687105417251587,-0.21151749789714813
10.18,0.0018641578499227762,0.007589785382151604,-0.004660394508391619,-0.01970299892127514,-0.9694425463676453,-0.20980948209762573
10.2,0.0018641578499227762,0.004394086077809334,-0.0003994623839389533,-0.019214998930692673,-0.9706624746322632,-0.20736949145793915
10.22,0.0007989247678779066,0.0001331541279796511,-0.004660394508391619,-0.016774998977780342,-0.9713944792747498,-0.21395748853683472
10.24,-0.0001331541279796511,-0.001997311832383275,-0.008921326138079166,-0.014579000882804394,-0.9684664607048035,-0.2105415016412735
10.26,-0.006524552125483751,-0.004127778112888336,-0.015312724746763706,-0.014334999956190586,-0.9679784774780273,-0.21151749789714813
10.28,-0.011850717477500439,-0.004127778112888336,-0.02276935614645481,-0.020434999838471413,-0.9650505185127258,-0.21615348756313324
10.3,-0.019307348877191544,-0.006258244160562754,-0.02489982172846794,-0.023850999772548676,-0.9677344560623169,-0.21493349969387054
10.32,-0.022503048181533813,-0.001997311832383275,-0.02489982172846794,-0.023850999772548676,-0.9677344560623169,-0.21493349969387054
10.34,-0.028894444927573204,0.0011983871227130294,-0.0238345880061388,-0.022874999791383743,-0.9650505185127258,-0.21615348756313324
10.36,-0.03528584539890289,0.00226362026296556,-0.02703028731048107,-0.01970299892127514,-0.965538501739502,-0.21590949594974518
10.38,-0.03954677656292915,0.006524552125483751,-0.03342168778181076,-0.01823900081217289,-0.9645625352859497,-0.2122495025396347
10.4,-0.040612008422613144,0.006524552125483751,-0.03555215150117874,-0.015554999932646751,-0.964074432849884,-0.21566550433635712
10.42,-0.04913387447595596,0.010785484686493874,-0.04194355010986328,-0.019946999847888947,-0.9684664607048035,-0.21395748853683472
10.44,-0.05659050494432449,0.011850717477500439,-0.04620448127388954,-0.02336299978196621,-0.9633424878120422,-0.21956948935985565
10.46,-0.06404713541269302,0.015046416781842709,-0.04726971685886383,-0.01701899990439415,-0.9645625352859497,-0.21908150613307953
10.48,-0.066177599132061,0.012915950268507004,-0.04833494871854782,-0.01384699996560812,-0.9633424878120422,-0.22200950980186462
10.5,-0.07150376588106155,0.015046416781842709,-0.04513924941420555,-0.01384699996560812,-0.9606585502624512,-0.2239920049905777
10.52,-0.07363422960042953,0.019307348877191544,-0.04726971685886383,-0.016042999923229218,-0.9628545045852661,-0.22472400963306427
10.54,-0.07150376588106155,0.022503048181533813,-0.04940018057823181,-0.01311499997973442,-0.9604145288467407,-0.22643199563026428
10.56,-0.07363422960042953,0.026763979345560074,-0.04513924941420555,-0.011895000003278255,-0.961390495300293,-0.21883749961853027
10.58,-0.07256899774074554,0.022503048181533813,-0.04407401755452156,-0.007259000092744827,-0.9581879377365112,-0.22765198349952698
10.6,-0.06830807030200958,0.018242115154862404,-0.04194355010986328,-0.006770999636501074,-0.9518439769744873,-0.23082399368286133
10.62,-0.060851436108350754,0.012915950268507004,-0.039813082665205,0.0015554999699816108,-0.9567239880561829,-0.2298480123281479
10.64,-0.05978620424866676,0.010785484686493874,-0.03235645219683647,-0.006527000106871128,-0.9567239880561829,-0.23521599173545837
10.66,-0.050199106335639954,0.007589785382151604,-0.02809552103281021,-0.00506300013512373,-0.9564799666404724,-0.24009600281715393
10.68,-0.044872939586639404,0.009720250964164734,-0.02489982172846794,-0.0006710000452585518,-0.9496479630470276,-0.23643600940704346
10.7,-0.033155377954244614,0.010785484686493874,-0.02276935614645481,-0.0016469999682158232,-0.9418400526046753,-0.23887600004673004
10.72,-0.016111649572849274,0.025698747485876083,-0.015312724746763706,0.0003355000226292759,-0.9464760422706604,-0.24351198971271515
10.74,-0.007589785382151604,0.031024912372231483,-0.014247491955757141,0.00375150004401803,-0.9491599798202515,-0.2449759840965271
10.76,-0.0011983871227130294,0.031024912372231483,-0.004660394508391619,0.003263500053435564,-0.955016016960144,-0.24570800364017487
10.78,0.0061250897124409676,0.03209014609456062,-0.0025299284607172012,0.007655499503016472,-0.9503800272941589,-0.24448800086975098
10.8,0.0007989247678779066,0.033155377954244614,-0.0025299284607172012,0.005947500001639128,-0.9513559937477112,-0.25107598304748535
10.82,0.0007989247678779066,0.03209014609456062,-0.004660394508391619,0.006191499996930361,-0.9503800272941589,-0.252082496881485
10.84,-0.0011983871227130294,0.037416309118270874,-0.0003994623839389533,0.008387499488890171,-0.9494039416313171,-0.2554984986782074
10.86,-0.006524552125483751,0.03209014609456062,0.005991935729980469,0.01424350030720234,-0.9494039416313171,-0.2613545060157776
10.88,-0.009720250964164734,0.040612008422613144,0.007057168986648321,0.014731500297784805,-0.9430599808692932,-0.2625744938850403
10.9,-0.020372580736875534,0.040612008422613144,0.011318100616335869,0.015463500283658504,-0.9498920440673828,-0.26330649852752686
10.92,-0.028894444927573204,0.04274247586727142,0.010252867825329304,0.01668350026011467,-0.9425719976425171,-0.2652585208415985
10.94,-0.03528584539890289,0.043807707726955414,0.009187635034322739,0.01668350026011467,-0.9425719976425171,-0.2652585208415985
10.96,-0.03848154470324516,0.041677240282297134,0.008122402243316174,0.013267499394714832,-0.9525759816169739,-0.2630625069141388
10.98,-0.03954677656292915,0.04593817517161369,0.0038614696823060513,0.01277950033545494,-0.9508680105209351,-0.260622501373291
11,-0.034220609813928604,0.040612008422613144,0.000665770610794425,0.01277950033545494,-0.9508680105209351,-0.260622501373291
11.02,-0.036351077258586884,0.047003407031297684,0.0027962366584688425,0.01277950033545494,-0.9533079862594604,-0.2635504901409149
11.04,-0.03848154470324516,0.03848154470324516,0.000665770610794425,0.016439499333500862,-0.9413520693778992,-0.2664785087108612
11.06,-0.036351077258586884,0.03954677656292915,0.0027962366584688425,0.016439499333500862,-0.9413520693778992,-0.2664785087108612
11.08,-0.03209014609456062,0.036351077258586884,0.0038614696823060513,0.015463500283658504,-0.9455000758171082,-0.2672105133533478
11.1,-0.031024912372231483,0.037416309118270874,0.0038614696823060513,0.015463500283658504,-0.9455000758171082,-0.2672105133533478
11.12,-0.025698747485876083,0.03954677656292915,0.004926702938973904,0.017415501177310944,-0.9411080479621887,-0.2640385031700134
11.14,-0.017176883295178413,0.037416309118270874,0.0027962366584688425,0.016195500269532204,-0.937936007976532,-0.2601344883441925
11.16,-0.013981183059513569,0.036351077258586884,0.004926702938973904,0.020099500194191933,-0.9428160190582275,-0.2572064995765686
11.18,-0.012915950268507004,0.037416309118270874,0.0017310036346316338,0.013267499394714832,-0.9450119733810425,-0.25525447726249695
11.2,-0.015046416781842709,0.034220609813928604,0.0038614696823060513,0.018391499295830727,-0.9386680126190186,-0.2579385042190552
11.22,-0.016111649572849274,0.034220609813928604,0.0027962366584688425,0.018879499286413193,-0.9450119733810425,-0.25281450152397156
11.24,-0.022503048181533813,0.036351077258586884,-0.0014646954368799925,0.022783499211072922,-0.9428160190582275,-0.25940248370170593
11.26,-0.03209014609456062,0.048068638890981674,-0.00359516148455441,0.012291500344872475,-0.9376920461654663,-0.2711144983768463
11.28,-0.050199106335639954,0.053394805639982224,0.004926702938973904,0.01351150032132864,-0.9408639669418335,-0.27968502044677734
11.3,-0.05978620424866676,0.06298190355300903,0.010252867825329304,0.020099500194191933,-0.9459880590438843,-0.27599450945854187
11.32,-0.060851436108350754,0.067242830991745,0.0017310036346316338,0.032085999846458435,-0.944767951965332,-0.2659904956817627
11.34,-0.04593817517161369,0.06404713541269302,-0.015312724746763706,0.033305998891592026,-0.9433040022850037,-0.2618425190448761
11.36,-0.029959678649902344,0.050199106335639954,-0.02916075475513935,0.030378000810742378,-0.9452559351921082,-0.25915849208831787
11.38,-0.017176883295178413,0.036351077258586884,-0.02596505545079708,0.030378000810742378,-0.9452559351921082,-0.25915849208831787
11.4,-0.008655018173158169,0.028894444927573204,-0.0185084231197834,0.017659500241279602,-0.9481840133666992,-0.2613545060157776
11.42,-0.011850717477500439,0.023568280041217804,-0.006790860556066036,0.02180750109255314,-0.9433040022850037,-0.26745450496673584
11.44,-0.018242115154862404,0.026763979345560074,-0.0014646954368799925,0.02180750109255314,-0.9433040022850037,-0.26745450496673584
11.46,-0.020372580736875534,0.027829213067889214,-0.006790860556066036,0.027938000857830048,-0.9472079873085022,-0.26696649193763733
11.48,-0.020372580736875534,0.023568280041217804,-0.013182258233428001,0.027938000857830048,-0.9472079873085022,-0.26696649193763733
11.5,-0.022503048181533813,0.015046416781842709,-0.03022598661482334,0.027938000857830048,-0.9437919855117798,-0.2694064974784851
11.52,-0.024633513763546944,0.007589785382151604,-0.03342168778181076,0.027938000857830048,-0.9437919855117798,-0.2694064974784851
11.54,-0.027829213067889214,0.0011983871227130294,-0.02809552103281021,0.029645999893546104,-0.9435479640960693,-0.27087050676345825
11.56,-0.026763979345560074,-0.0009320789249613881,-0.02063889056444168,0.022295501083135605,-0.9428160190582275,-0.2676984965801239
11.58,-0.018242115154862404,-0.001997311832383275,-0.013182258233428001,0.022295501083135605,-0.9464760422706604,-0.26916250586509705
11.6,-0.009720250964164734,-0.010519175790250301,-0.011051792651414871,0.021319499239325523,-0.9459880590438843,-0.2711144983768463
11.62,-0.011850717477500439,-0.011584409512579441,-0.004660394508391619,0.023515500128269196,-0.9440360069274902,-0.2735545039176941
11.64,-0.012915950268507004,-0.013714875094592571,-0.006790860556066036,0.026199501007795334,-0.942084014415741,-0.2694064974784851
11.66,-0.013981183059513569,-0.012649642303586006,-0.004660394508391619,0.02180750109255314,-0.9428160190582275,-0.2681864798069
11.68,-0.015046416781842709,-0.015845341607928276,-0.006790860556066036,0.019855501130223274,-0.940619945526123,-0.2769705057144165
11.7,-0.018242115154862404,-0.012649642303586006,-0.005725627299398184,0.01936749927699566,-0.9459880590438843,-0.2757504880428314
11.72,-0.017176883295178413,-0.007323476951569319,-0.0003994623839389533,0.014487499371170998,-0.9516000151634216,-0.27257850766181946
11.74,-0.026763979345560074,-0.005193010903894901,-0.0003994623839389533,0.014487499371170998,-0.9516000151634216,-0.27257850766181946
11.76,-0.031024912372231483,-0.0030625448562204838,0.004926702938973904,0.021075500175356865,-0.9440360069274902,-0.2728224992752075
11.78,-0.028894444927573204,-0.001997311832383275,0.0027962366584688425,0.022539500147104263,-0.9394000172615051,-0.2676984965801239
11.8,-0.026763979345560074,0.006524552125483751,-0.0003994623839389533,0.018879499286413193,-0.9403759837150574,-0.2735545039176941
11.82,-0.033155377954244614,0.011850717477500439,0.0017310036346316338,0.016439499333500862,-0.9469640254974365,-0.2747745215892792
11.84,-0.041677240282297134,0.019307348877191544,-0.0025299284607172012,0.02034349925816059,-0.9435479640960693,-0.2730664908885956
11.86,-0.050199106335639954,0.028894444927573204,0.000665770610794425,0.0205875001847744,-0.9474520087242126,-0.2769705057144165
11.88,-0.05232957378029823,0.037416309118270874,0.0038614696823060513,0.022051500156521797,-0.942084014415741,-0.27550649642944336
11.9,-0.050199106335639954,0.03848154470324516,0.0017310036346316338,0.022051500156521797,-0.942084014415741,-0.27550649642944336
11.92,-0.044872939586639404,0.04913387447595596,-0.0003994623839389533,0.016927499324083328,-0.9396439790725708,-0.27599450945854187
11.94,-0.044872939586639404,0.048068638890981674,0.0017310036346316338,0.016927499324083328,-0.9396439790725708,-0.2730664908885956
11.96,-0.03954677656292915,0.05232957378029823,0.0038614696823060513,0.0205875001847744,-0.9428160190582275,-0.27428650856018066
11.98,-0.036351077258586884,0.0555252730846405,0.0027962366584688425,0.019611500203609467,-0.9437919855117798,-0.2794409990310669
12,-0.03528584539890289,0.06298190355300903,0.004926702938973904,0.019855501130223274,-0.940619945526123,-0.27257850766181946
12.02,-0.03528584539890289,0.05659050494432449,0.009187635034322739,0.019123500213027,-0.9491599798202515,-0.2701385021209717
12.04,-0.029959678649902344,0.050199106335639954,0.008122402243316174,0.02745000086724758,-0.9474520087242126,-0.27257850766181946
12.06,-0.018242115154862404,0.03848154470324516,0.005991935729980469,0.030865998938679695,-0.9437919855117798,-0.26696649193763733
12.08,-0.017176883295178413,0.033155377954244614,-0.0003994623839389533,0.03135399892926216,-0.9442799687385559,-0.2689184844493866
12.1,-0.008655018173158169,0.018242115154862404,0.0017310036346316338,0.030865998938679695,-0.9415960311889648,-0.2701385021209717
12.12,-0.004394086077809334,0.013981183059513569,0.008122402243316174,0.02745000086724758,-0.9435479640960693,-0.27087050676345825
12.14,-0.0011983871227130294,0.004394086077809334,0.015579032711684704,0.025223499163985252,-0.9452559351921082,-0.27087050676345825
12.16,0.002929390873759985,0.0001331541279796511,0.02303566411137581,0.026199501007795334,-0.9467200040817261,-0.2774584889411926
12.18,0.008255556225776672,-0.0009320789249613881,0.01983996480703354,0.02644350193440914,-0.9369600415229797,-0.2740425169467926
12.2,0.011451254598796368,-0.005193010903894901,0.012383334338665009,0.02745000086724758,-0.9401319622993469,-0.27379849553108215
12.22,0.008255556225776672,-0.011584409512579441,0.005991935729980469,0.023759499192237854,-0.944767951965332,-0.27209049463272095
12.24,0.00719032296910882,-0.016910573467612267,0.000665770610794425,0.019855501130223274,-0.9452559351921082,-0.27331048250198364
12.26,0.0050598569214344025,-0.021171506494283676,0.0027962366584688425,0.022783499211072922,-0.9415960311889648,-0.2716025114059448
12.28,0.014646953903138638,-0.023301972076296806,0.0027962366584688425,0.024491500109434128,-0.9445239901542664,-0.26916250586509705
12.3,0.015712186694145203,-0.025432437658309937,0.008122402243316174,0.022539500147104263,-0.9450119733810425,-0.2706265151500702
12.32,0.013581721112132072,-0.027562905102968216,0.013448567129671574,0.022295501083135605,-0.9481840133666992,-0.27428650856018066
12.34,0.017842652276158333,-0.028628136962652206,0.012383334338665009,0.016927499324083328,-0.9479399919509888,-0.2728224992752075
12.36,0.017842652276158333,-0.024367205798625946,0.015579032711684704,0.017415501177310944,-0.9469640254974365,-0.26867449283599854
12.38,0.023168819025158882,-0.026497671380639076,0.015579032711684704,0.015219499357044697,-0.9428160190582275,-0.2694064974784851
12.4,0.023168819025158882,-0.017975807189941406,0.015579032711684704,0.010583500377833843,-0.940619945526123,-0.272334486246109
12.42,0.025299284607172012,-0.011584409512579441,0.013448567129671574,0.01351150032132864,-0.94623202085495,-0.2640385031700134
12.44,0.027429750189185143,-0.008388710208237171,0.01664426550269127,0.015463500283658504,-0.942084014415741,-0.26916250586509705
12.46,0.024234050884842873,-0.004127778112888336,0.009187635034322739,0.01351150032132864,-0.940619945526123,-0.2676984965801239
12.48,0.021038351580500603,0.0011983871227130294,0.011318100616335869,0.009363500401377678,-0.9476959705352783,-0.2672105133533478
12.5,0.017842652276158333,-0.0030625448562204838,0.012383334338665009,0.008631499484181404,-0.944767951965332,-0.26574650406837463
12.52,0.014646953903138638,-0.0009320789249613881,0.015579032711684704,0.015219499357044697,-0.9476959705352783,-0.2652585208415985
12.54,0.015712186694145203,0.005459319334477186,0.013448567129671574,0.016927499324083328,-0.9474520087242126,-0.26208651065826416
12.56,0.016777420416474342,0.0033288532868027687,0.011318100616335869,0.016439499333500862,-0.9464760422706604,-0.26672250032424927
12.58,0.017842652276158333,0.0011983871227130294,0.014513799920678139,0.01351150032132864,-0.9472079873085022,-0.2642824947834015
12.6,0.017842652276158333,-0.004127778112888336,0.009187635034322739,0.013267499394714832,-0.9525759816169739,-0.263794481754303
12.62,0.013581721112132072,-0.006258244160562754,0.010252867825329304,0.017171500250697136,-0.9501360654830933,-0.2630625069141388
12.64,0.009320789016783237,-0.013714875094592571,0.012383334338665009,0.015219499357044697,-0.9476959705352783,-0.26159849762916565
12.66,0.011451254598796368,-0.015845341607928276,0.007057168986648321,0.015463500283658504,-0.9413520693778992,-0.26086652278900146
12.68,0.013581721112132072,-0.012649642303586006,0.004926702938973904,0.013755499385297298,-0.9469640254974365,-0.263794481754303
12.7,0.008255556225776672,-0.013714875094592571,0.0027962366584688425,0.010827499441802502,-0.9457440376281738,-0.26623451709747314
12.72,0.00399462366476655,-0.014780107885599136,0.004926702938973904,0.014731500297784805,-0.9486719965934753,-0.2655025124549866
12.74,0.002929390873759985,-0.013714875094592571,0.000665770610794425,0.01424350030720234,-0.948915958404541,-0.26696649193763733
12.76,0.00399462366476655,-0.017975807189941406,-0.0025299284607172012,0.01424350030720234,-0.948915958404541,-0.26696649193763733
12.78,0.00399462366476655,-0.012649642303586006,-0.0025299284607172012,0.013999500311911106,-0.9464760422706604,-0.26330649852752686
12.8,-0.0001331541279796511,-0.010519175790250301,-0.004660394508391619,0.013023500330746174,-0.9430599808692932,-0.26086652278900146
12.82,-0.0033288532868027687,-0.009453942999243736,-0.00359516148455441,0.013267499394714832,-0.9496479630470276,-0.2642824947834015
12.84,-0.004394086077809334,-0.006258244160562754,-0.005725627299398184,0.013267499394714832,-0.9481840133666992,-0.263794481754303
12.86,-0.008655018173158169,-0.004127778112888336,-0.007856093347072601,0.011803499422967434,-0.9464760422706604,-0.2630625069141388
12.88,-0.008655018173158169,0.0011983871227130294,-0.006790860556066036,0.012535500340163708,-0.9486719965934753,-0.2625744938850403
12.9,-0.010785484686493874,-0.001997311832383275,-0.006790860556066036,0.015219499357044697,-0.9496479630470276,-0.2640385031700134
12.92,-0.007589785382151604,-0.001997311832383275,-0.007856093347072601,0.012535500340163708,-0.9476959705352783,-0.2652585208415985
12.94,-0.011850717477500439,0.0001331541279796511,-0.007856093347072601,0.010095500387251377,-0.9508680105209351,-0.26281848549842834
12.96,-0.016111649572849274,0.00226362026296556,-0.009986559860408306,0.016927499324083328,-0.9425719976425171,-0.2642824947834015
12.98,-0.019307348877191544,0.0011983871227130294,-0.012117025442421436,0.016927499324083328,-0.944767951965332,-0.25989049673080444
13,-0.019307348877191544,0.00226362026296556,-0.009986559860408306,0.01351150032132864,-0.9481840133666992,-0.2659904956817627
13.02,-0.024633513763546944,0.004394086077809334,-0.007856093347072601,0.012291500344872475,-0.9433040022850037,-0.26452648639678955
13.04,-0.022503048181533813,0.007589785382151604,-0.005725627299398184,0.017415501177310944,-0.9411080479621887,-0.2642824947834015
13.06,-0.017176883295178413,0.007589785382151604,-0.007856093347072601,0.013999500311911106,-0.9430599808692932,-0.2711144983768463
13.08,-0.016111649572849274,0.004394086077809334,-0.006790860556066036,0.017415501177310944,-0.9474520087242126,-0.2713584899902344
13.1,-0.017176883295178413,0.004394086077809334,-0.007856093347072601,0.018879499286413193,-0.94623202085495,-0.26696649193763733
13.12,-0.015046416781842709,0.009720250964164734,-0.0025299284607172012,0.018147500231862068,-0.9474520087242126,-0.26672250032424927
13.14,-0.010785484686493874,0.004394086077809334,-0.004660394508391619,0.019123500213027,-0.9457440376281738,-0.26965051889419556
13.16,-0.011850717477500439,0.004394086077809334,-0.007856093347072601,0.019123500213027,-0.9457440376281738,-0.26965051889419556
13.18,-0.012915950268507004,0.004394086077809334,-0.007856093347072601,0.013023500330746174,-0.9464760422706604,-0.27087050676345825
13.2,-0.012915950268507004,0.0001331541279796511,-0.011051792651414871,0.013023500330746174,-0.9464760422706604,-0.27087050676345825
13.22,-0.020372580736875534,0.005459319334477186,-0.004660394508391619,0.017171500250697136,-0.9411080479621887,-0.27379849553108215
13.24,-0.019307348877191544,0.0011983871227130294,-0.009986559860408306,0.017415501177310944,-0.9440360069274902,-0.2655025124549866
13.26,-0.019307348877191544,0.00226362026296556,-0.008921326138079166,0.0205875001847744,-0.9442799687385559,-0.27623850107192993
13.28,-0.021437814459204674,0.005459319334477186,-0.009986559860408306,0.018879499286413193,-0.9418400526046753,-0.2694064974784851
13.3,-0.023568280041217804,0.008655018173158169,-0.008921326138079166,0.018635500222444534,-0.9430599808692932,-0.27550649642944336
13.32,-0.021437814459204674,0.010785484686493874,-0.013182258233428001,0.015707500278949738,-0.9401319622993469,-0.2777024805545807
13.34,-0.021437814459204674,0.007589785382151604,-0.008921326138079166,0.016195500269532204,-0.9445239901542664,-0.2757504880428314
13.36,-0.021437814459204674,0.007589785382151604,-0.005725627299398184,0.018879499286413193,-0.9428160190582275,-0.27209049463272095
13.38,-0.018242115154862404,0.007589785382151604,-0.0025299284607172012,0.019123500213027,-0.9452559351921082,-0.27257850766181946
13.4,-0.018242115154862404,0.012915950268507004,-0.0025299284607172012,0.017415501177310944,-0.9433040022850037,-0.27550649642944336
13.42,-0.017176883295178413,0.010785484686493874,-0.004660394508391619,0.018147500231862068,-0.9464760422706604,-0.2752625048160553
13.44,-0.015046416781842709,0.013981183059513569,-0.00359516148455441,0.016927499324083328,-0.9384239912033081,-0.2711144983768463
13.46,-0.017176883295178413,0.016111649572849274,-0.0014646954368799925,0.021075500175356865,-0.9428160190582275,-0.27501851320266724
13.48,-0.013981183059513569,0.012915950268507004,-0.006790860556066036,0.02156350016593933,-0.940619945526123,-0.27794650197029114
13.5,-0.015046416781842709,0.013981183059513569,-0.005725627299398184,0.02668749913573265,-0.9433040022850037,-0.26867449283599854
13.52,-0.020372580736875534,0.013981183059513569,-0.00359516148455441,0.024979500100016594,-0.9435479640960693,-0.27599450945854187
13.54,-0.018242115154862404,0.011850717477500439,-0.0014646954368799925,0.02571149915456772,-0.9391559958457947,-0.2769705057144165
13.56,-0.011850717477500439,0.010785484686493874,-0.0025299284607172012,0.02400350011885166,-0.9433040022850037,-0.27843451499938965
13.58,-0.008655018173158169,0.0033288532868027687,-0.006790860556066036,0.02400350011885166,-0.9433040022850037,-0.27843451499938965
13.6,-0.006524552125483751,0.004394086077809334,-0.004660394508391619,0.02400350011885166,-0.9386680126190186,-0.276482492685318
13.62,-0.004394086077809334,0.0001331541279796511,-0.004660394508391619,0.024491500109434128,-0.9386680126190186,-0.2747745215892792
13.64,0.0007989247678779066,0.0001331541279796511,-0.004660394508391619,0.026199501007795334,-0.9428160190582275,-0.27428650856018066
13.66,0.0007989247678779066,-0.007323476951569319,-0.0025299284607172012,0.023759499192237854,-0.9418400526046753,-0.27550649642944336
13.68,0.00719032296910882,-0.004127778112888336,-0.0025299284607172012,0.02571149915456772,-0.9408639669418335,-0.27038249373435974
13.7,0.00719032296910882,-0.006258244160562754,-0.004660394508391619,0.02571149915456772,-0.9408639669418335,-0.27038249373435974
13.72,0.0050598569214344025,-0.011584409512579441,-0.006790860556066036,0.02424750104546547,-0.937936007976532,-0.2777024805545807
13.74,-0.0011983871227130294,-0.009453942999243736,-0.006790860556066036,0.032329998910427094,-0.9445239901542664,-0.2745305001735687
13.76,0.002929390873759985,-0.012649642303586006,-0.005725627299398184,0.027938000857830048,-0.9381800293922424,-0.2752625048160553
13.78,0.002929390873759985,-0.008388710208237171,-0.005725627299398184,0.02546750009059906,-0.9435479640960693,-0.27501851320266724
13.8,0.0050598569214344025,-0.009453942999243736,-0.006790860556066036,0.030865998938679695,-0.9418400526046753,-0.2811489999294281
13.82,0.0007989247678779066,-0.008388710208237171,-0.008921326138079166,0.021319499239325523,-0.9425719976425171,-0.28041699528694153
13.84,0.0007989247678779066,-0.010519175790250301,-0.004660394508391619,0.027175499126315117,-0.9396439790725708,-0.2774584889411926
13.86,0.002929390873759985,-0.013714875094592571,-0.007856093347072601,0.02424750104546547,-0.9413520693778992,-0.2818810045719147
13.88,0.0061250897124409676,-0.010519175790250301,-0.004660394508391619,0.024491500109434128,-0.9433040022850037,-0.27672648429870605
13.9,0.0061250897124409676,-0.009453942999243736,-0.0025299284607172012,0.022783499211072922,-0.9430599808692932,-0.2816369831562042
13.92,0.0050598569214344025,-0.007323476951569319,-0.0014646954368799925,0.02693150006234646,-0.9435479640960693,-0.2848089933395386
13.94,0.002929390873759985,-0.008388710208237171,0.0017310036346316338,0.019611500203609467,-0.9452559351921082,-0.28261297941207886
13.96,0.002929390873759985,-0.005193010903894901,-0.0014646954368799925,0.022783499211072922,-0.9411080479621887,-0.28139299154281616
13.98,0.0018641578499227762,-0.0009320789249613881,-0.0014646954368799925,0.02156350016593933,-0.9415960311889648,-0.27550649642944336
14,0.0018641578499227762,0.004394086077809334,-0.0003994623839389533,0.02400350011885166,-0.9413520693778992,-0.27721449732780457
14.02,-0.00226362026296556,0.00226362026296556,-0.0003994623839389533,0.024979500100016594,-0.9445239901542664,-0.2711144983768463
14.04,-0.008655018173158169,0.0033288532868027687,0.0017310036346316338,0.02180750109255314,-0.9437919855117798,-0.276482492685318
14.06,-0.010785484686493874,0.005459319334477186,0.004926702938973904,0.01936749927699566,-0.940619945526123,-0.2740425169467926
14.08,-0.007589785382151604,0.006524552125483751,0.004926702938973904,0.01936749927699566,-0.940619945526123,-0.2740425169467926
14.1,-0.005459319334477186,0.009720250964164734,0.005991935729980469,0.02424750104546547,-0.9433040022850037,-0.27428650856018066
14.12,-0.0033288532868027687,0.007589785382151604,0.0027962366584688425,0.02571149915456772,-0.9464760422706604,-0.2828570008277893
14.14,-0.007589785382151604,0.007589785382151604,0.000665770610794425,0.02400350011885166,-0.9428160190582275,-0.27550649642944336
14.16,-0.004394086077809334,0.006524552125483751,0.000665770610794425,0.02693150006234646,-0.9418400526046753,-0.2711144983768463
14.18,-0.0001331541279796511,0.0001331541279796511,-0.005725627299398184,0.023515500128269196,-0.9418400526046753,-0.2752625048160553
14.2,-0.0011983871227130294,0.0011983871227130294,-0.0025299284607172012,0.023515500128269196,-0.9418400526046753,-0.2752625048160553
14.22,0.00399462366476655,0.0001331541279796511,0.0017310036346316338,0.024735501036047935,-0.9450119733810425,-0.27038249373435974
14.24,-0.0001331541279796511,-0.007323476951569319,-0.00359516148455441,0.030378000810742378,-0.9437919855117798,-0.27209049463272095
14.26,-0.004394086077809334,-0.008388710208237171,-0.00359516148455441,0.03135399892926216,-0.9411080479621887,-0.2718465030193329
14.28,-0.0033288532868027687,-0.013714875094592571,-0.0025299284607172012,0.031109999865293503,-0.9403759837150574,-0.2676984965801239
14.3,-0.00226362026296556,-0.015845341607928276,-0.0014646954368799925,0.02424750104546547,-0.9437919855117798,-0.27038249373435974
14.32,0.0007989247678779066,-0.015845341607928276,-0.0025299284607172012,0.022783499211072922,-0.9459880590438843,-0.276482492685318
14.34,0.0018641578499227762,-0.020106272771954536,-0.004660394508391619,0.027175499126315117,-0.9467200040817261,-0.27843451499938965
14.36,-0.006524552125483751,-0.020106272771954536,-0.0003994623839389533,0.02400350011885166,-0.9467200040817261,-0.2730664908885956
14.38,-0.0033288532868027687,-0.017975807189941406,-0.0025299284607172012,0.02546750009059906,-0.9425719976425171,-0.2711144983768463
14.4,-0.0033288532868027687,-0.016910573467612267,-0.004660394508391619,0.022051500156521797,-0.9408639669418335,-0.2752625048160553
14.42,-0.0011983871227130294,-0.013714875094592571,-0.0025299284607172012,0.02400350011885166,-0.9435479640960693,-0.2713584899902344
14.44,-0.0011983871227130294,-0.010519175790250301,-0.005725627299398184,0.02400350011885166,-0.9442799687385559,-0.27428650856018066
14.46,-0.0011983871227130294,-0.009453942999243736,-0.0014646954368799925,0.019611500203609467,-0.9469640254974365,-0.27623850107192993
14.48,-0.0011983871227130294,-0.005193010903894901,0.000665770610794425,0.023271499201655388,-0.9457440376281738,-0.27550649642944336
14.5,0.0007989247678779066,-0.001997311832383275,0.0017310036346316338,0.016927499324083328,-0.9467200040817261,-0.27257850766181946
14.52,-0.0001331541279796511,-0.0009320789249613881,0.000665770610794425,0.023271499201655388,-0.9423280358314514,-0.27209049463272095
14.54,-0.009720250964164734,0.005459319334477186,0.000665770610794425,0.019611500203609467,-0.9396439790725708,-0.26965051889419556
14.56,-0.008655018173158169,0.007589785382151604,0.000665770610794425,0.026199501007795334,-0.9459880590438843,-0.2774584889411926
14.58,-0.010785484686493874,0.007589785382151604,0.007057168986648321,0.018635500222444534,-0.9445239901542664,-0.2735545039176941
14.6,-0.007589785382151604,0.010785484686493874,0.007057168986648321,0.017415501177310944,-0.9440360069274902,-0.2716025114059448
14.62,-0.009720250964164734,0.012915950268507004,0.012383334338665009,0.022051500156521797,-0.9433040022850037,-0.2787089943885803
14.64,-0.11624355614185333,0.2013290375471115,0.13488513231277466,0.13465750217437744,0.19355300068855286,1.035017490386963
14.66,0.10412652790546417,0.07363422960042953,0.205190509557724,-0.10348649322986603,0.13172949850559235,0.9436395168304443
14.68,-0.022503048181533813,0.08322133123874664,0.8387378454208374,-0.10348649322986603,0.13172949850559235,0.9436395168304443
14.7,0.026364516466856003,0.0001331541279796511,0.7994573712348938,0.05233800411224365,0.09680700302124023,1.0293750762939453
14.72,0.013581721112132072,-0.043541401624679565,0.6556509137153625,0.10071099549531937,0.08558299392461777,1.0135149955749512
14.74,0.04873441159725189,-0.32263246178627014,0.33395054936408997,0.08164849877357483,0.05261250212788582,1.0499014854431152
14.76,0.15845340490341187,-0.3268933892250061,0.24766667187213898,0.10388299822807312,0.04794600233435631,1.0806760787963867
14.78,0.2585853040218353,-0.2949363887310028,0.21903854608535767,0.10193099826574326,0.028181998059153557,1.0623760223388672
14.8,0.39600038528442383,-0.2523270845413208,0.11890663951635361,0.11782149970531464,0.032329998910427094,1.0445334911346436
14.82,0.47056668996810913,-0.2715012729167938,-0.11544463038444519,0.16104000806808472,0.026718001812696457,1.036481499671936
14.84,0.3672390878200531,-0.21610915660858154,-0.1687062829732895,0.08411899954080582,0.0911950021982193,0.9942085146903992
14.86,0.19041040539741516,-0.045671865344047546,-0.05792204663157463,0.01790350116789341,0.13810399174690247,0.944859504699707
14.88,0.05938674136996269,0.10239552706480026,-0.06218297779560089,0.05993250384926796,0.15567199885845184,0.9402234554290771
14.9,0.012516488321125507,0.1384802907705307,-0.02916075475513935,0.06481250375509262,0.14347200095653534,0.9622139930725098
14.92,-0.004394086077809334,0.17469821870326996,-0.03448691964149475,0.07725650072097778,0.14810800552368164,0.9751459956169128
14.94,0.06577813625335693,0.19387240707874298,-0.007856093347072601,0.0672525018453598,0.1554279923439026,1.022542953491211
14.96,0.1552577167749405,0.20772044360637665,0.010252867825329304,0.06334850192070007,0.16448649764060974,1.0340415239334106
14.98,0.1541924774646759,0.19919857382774353,0.02090519852936268,0.05627249926328659,0.1576239913702011,1.0054630041122437
15,0.08282186836004257,0.17363297939300537,0.011318100616335869,0.05111800134181976,0.14786399900913239,0.972461998462677
15.02,0.008255556225776672,0.14380645751953125,0.008122402243316174,0.048434000462293625,0.15445201098918915,0.9810324907302856
15.04,-0.005459319334477186,0.1374150663614273,0.007057168986648321,0.04941000044345856,0.15396399796009064,1.0069270133972168
15.06,0.019973119720816612,0.1278279572725296,-0.012117025442421436,0.05185000225901604,0.15371999144554138,1.018151044845581
15.08,0.10306129604578018,0.036351077258586884,-0.02170412242412567,0.03916200250387192,0.1437160074710846,1.0174189805984497
15.1,-0.022503048181533813,0.048068638890981674,-0.02276935614645481,0.0462380014359951,0.15664801001548767,0.9888405203819275
15.12,-0.12476541846990585,0.06404713541269302,-0.02916075475513935,0.04379799962043762,0.16497449576854706,0.9995765089988708
15.14,-0.1194392517209053,0.043807707726955414,-0.015312724746763706,0.037209998816251755,0.16229049861431122,1.014246940612793
15.16,-0.08002562820911407,0.010785484686493874,-0.004660394508391619,0.02668749913573265,0.16326649487018585,1.0017725229263306
