timestamp,gyro_x,gyro_y,gyro_z,acc_x,acc_y,acc_z
10,-0.0447847805917263,0.06483598798513412,-0.003209908027201891,-0.214508056640625,0.9561920166015625,-0.1208953857421875
10.02,-0.018688732758164406,0.0022738068364560604,0.013174124993383884,-0.21319580078125,0.957122802734375,-0.1210784912109375
10.04,0.033421605825424194,-0.07409846037626266,0.016016516834497452,-0.2140045166015625,0.96221923828125,-0.130615234375
10.06,0.0536712184548378,-0.10140225291252136,0.018752383068203926,-0.21875,0.966217041015625,-0.1386260986328125
10.08,0.04067153111100197,-0.05265096202492714,0.00577826052904129,-0.2191314697265625,0.963714599609375,-0.1352691650390625
10.1,0.011788749136030674,0.036134835332632065,-0.00746031291782856,-0.2183990478515625,0.9609832763671875,-0.13092041015625
10.12,-0.0024802018888294697,0.059607937932014465,-0.00672288378700614,-0.213165283203125,0.9605712890625,-0.129913330078125
10.14,0.003288471372798085,0.015929963439702988,0.0025784724857658148,-0.2086944580078125,0.9615325927734375,-0.125640869140625
10.16,0.029832996428012848,-0.035721246153116226,0.008823319338262081,-0.209381103515625,0.9656982421875,-0.1257781982421875
10.18,0.038053110241889954,-0.04325959086418152,0.013524331152439117,-0.21160888671875,0.9683685302734375,-0.125579833984375
10.2,0.004625111818313599,-0.0022708773612976074,0.011651596054434776,-0.208984375,0.9633331298828125,-0.1250457763671875
10.22,-0.020413395017385483,0.04607774689793587,0.008207862265408039,-0.208648681640625,0.960968017578125,-0.123931884765625
10.24,-0.00920095480978489,0.038901593536138535,0.006450708955526352,-0.2076416015625,0.9621124267578125,-0.126617431640625
10.26,0.01816382445394993,-0.002432797569781542,0.009927465580403805,-0.210235595703125,0.9642791748046875,-0.130828857421875
10.28,0.02346457913517952,-0.02172020822763443,0.011171960271894932,-0.2114715576171875,0.9659576416015625,-0.1316680908203125
10.3,0.0026296053547412157,-0.010512029752135277,0.01254934724420309,-0.2094879150390625,0.964691162109375,-0.129974365234375
10.32,-0.011303787119686604,0.024444889277219772,0.0016072177095338702,-0.2093505859375,0.9613037109375,-0.127960205078125
10.34,-0.00637933611869812,0.04310645908117294,-0.001085504423826933,-0.2106170654296875,0.963775634765625,-0.129119873046875
10.36,0.005572930909693241,0.028688635677099228,-0.00023861923546064645,-0.2115478515625,0.9647064208984375,-0.1334228515625
10.38,0.00818069837987423,0.006461627781391144,0.004495682194828987,-0.21002197265625,0.9648895263671875,-0.13214111328125
10.4,-0.00467651104554534,0.005665342323482037,0.008982043713331223,-0.208831787109375,0.9618072509765625,-0.1292877197265625
10.42,-0.008971656672656536,0.028251610696315765,0.0026551715563982725,-0.207275390625,0.9655609130859375,-0.12884521484375
10.44,-0.015778962522745132,0.045704636722803116,-0.0012037487467750907,-0.210723876953125,0.9646148681640625,-0.131134033203125
10.46,-0.014423414133489132,0.05776502937078476,0.0005576659459620714,-0.209747314453125,0.96246337890625,-0.130462646484375
10.48,0.0041372207924723625,0.03610127791762352,0.006344981025904417,-0.206298828125,0.9613037109375,-0.1329345703125
10.5,0.00947952177375555,-0.024633174762129784,0.016040751710534096,-0.2072296142578125,0.9627838134765625,-0.133331298828125
10.52,0.01503780484199524,-0.035591281950473785,0.017174992710351944,-0.2127532958984375,0.9654388427734375,-0.128570556640625
10.54,0.011431352235376835,0.0038306908681988716,0.007923702709376812,-0.21588134765625,0.96356201171875,-0.1263275146484375
10.56,-0.016170447692275047,0.047459926456213,-0.003653058083727956,-0.2144622802734375,0.9631805419921875,-0.1260986328125
10.58,-0.035895947366952896,0.06669114530086517,-0.006307164207100868,-0.21466064453125,0.9629669189453125,-0.12213134765625
10.6,-0.020357735455036163,0.0530640184879303,-0.002525209216400981,-0.211212158203125,0.9591827392578125,-0.1248779296875
10.62,0.003981692250818014,0.008190285414457321,-0.0007936219917610288,-0.2101287841796875,0.963134765625,-0.1312103271484375
10.64,0.0110470587387681,-0.016636766493320465,0.006907973438501358,-0.2127838134765625,0.965789794921875,-0.1314697265625
10.66,0.00624111806973815,0.00833915639668703,0.006115150637924671,-0.2082061767578125,0.961334228515625,-0.131378173828125
10.68,-0.003028813051059842,0.016080699861049652,0.0047116647474467754,-0.2084808349609375,0.9642181396484375,-0.132110595703125
10.7,-0.0046549392864108086,0.001677791471593082,0.002035187790170312,-0.2106170654296875,0.96160888671875,-0.1270751953125
10.72,-0.001957956003025174,0.001047154888510704,-0.002454369328916073,-0.2138519287109375,0.9636383056640625,-0.1238861083984375
10.74,-0.0004916195175610483,0.021136710420250893,-0.008678176440298557,-0.2137451171875,0.9645233154296875,-0.1256103515625
10.76,-0.01230273861438036,0.03038187325000763,-0.008018777705729008,-0.2134857177734375,0.96453857421875,-0.1294403076171875
10.78,-0.0190192312002182,0.01931377686560154,-0.00418382603675127,-0.212554931640625,0.96160888671875,-0.128204345703125
10.8,-0.007478422485291958,0.007679491303861141,-0.0004516721237450838,-0.21026611328125,0.962371826171875,-0.1262359619140625
10.82,0.0027574370615184307,-0.004537493921816349,-0.005946306046098471,-0.2102203369140625,0.9634552001953125,-0.1296539306640625
10.84,-0.003317766124382615,0.004281031433492899,-0.00256382510997355,-0.21319580078125,0.965606689453125,-0.1293182373046875
10.86,-0.012593822553753853,0.005850964691489935,-0.004593686666339636,-0.209716796875,0.9611968994140625,-0.1298065185546875
10.88,-0.0034314829390496016,0.0020876519847661257,-0.001281779375858605,-0.2124176025390625,0.9622955322265625,-0.1269073486328125
10.9,0.0027276095934212208,-0.025306155905127525,-0.0006042712484486401,-0.2139129638671875,0.9643707275390625,-0.1269073486328125
10.92,-0.0008812400046736002,-0.03587091714143753,-0.0002950782363768667,-0.2156829833984375,0.960845947265625,-0.1249237060546875
10.94,-0.01242045033723116,0.008979646489024162,-0.011404188349843025,-0.2178192138671875,0.961883544921875,-0.1237945556640625
10.96,-0.016768060624599457,0.05428960546851158,-0.015273761004209518,-0.2192230224609375,0.9647216796875,-0.1280975341796875
10.98,-0.019591810181736946,0.04736432060599327,-0.017499364912509918,-0.21429443359375,0.9589385986328125,-0.12896728515625
11,-0.0017840516520664096,0.02677089348435402,-0.010147176682949066,-0.2115325927734375,0.962249755859375,-0.1301422119140625
11.02,0.018505508080124855,0.012705941684544086,-0.00293320557102561,-0.20843505859375,0.9683837890625,-0.1346588134765625
11.04,0.023094933480024338,-0.012211126275360584,0.007389206904917955,-0.2023162841796875,0.9608306884765625,-0.135711669921875
11.06,0.016750218346714973,-0.022038722410798073,0.014316621236503124,-0.204254150390625,0.9642181396484375,-0.130706787109375
11.08,0.006030728109180927,-0.008959938772022724,0.014969628304243088,-0.20697021484375,0.9682159423828125,-0.127532958984375
11.1,-0.0035955337807536125,-0.0001984054979402572,0.015865515917539597,-0.208892822265625,0.961029052734375,-0.12530517578125
11.12,-0.00618119677528739,0.00959776621311903,0.011373561806976795,-0.2137451171875,0.961517333984375,-0.1261444091796875
11.14,0.001547030289657414,0.016636500135064125,0.00818016566336155,-0.2180328369140625,0.9625091552734375,-0.128021240234375
11.16,0.010511763393878937,0.015732090920209885,0.005656553898006678,-0.2201690673828125,0.95782470703125,-0.13140869140625
11.18,0.019210446625947952,0.004494616761803627,-0.0020876519847661257,-0.21661376953125,0.9620513916015625,-0.1336669921875
11.2,0.022279739379882812,0.016523582860827446,-0.0035582494456321,-0.21502685546875,0.9628143310546875,-0.1356353759765625
11.22,0.01894705928862095,0.0245551448315382,-0.005409146659076214,-0.208740234375,0.961669921875,-0.13433837890625
11.24,0.011413509026169777,0.006618221756070852,0.0031350732315331697,-0.2049560546875,0.9680633544921875,-0.1302947998046875
11.26,0.01136823557317257,0.006706372369080782,0.00809148233383894,-0.20123291015625,0.9633331298828125,-0.126495361328125
11.28,0.0054613444954156876,-0.007529555354267359,0.018682874739170074,-0.1997222900390625,0.9691925048828125,-0.128265380859375
11.3,0.00018136126163881272,-0.02413995750248432,0.017189905047416687,-0.2001190185546875,0.9640045166015625,-0.126129150390625
11.32,0.007545001804828644,-0.00868936162441969,0.014393053948879242,-0.2057952880859375,0.9675445556640625,-0.127777099609375
11.34,0.00006524744821945205,0.015255119651556015,0.010528807528316975,-0.21002197265625,0.965667724609375,-0.1307525634765625
11.36,-0.00751890242099762,0.028381306678056717,0.007151119876652956,-0.210540771484375,0.959259033203125,-0.1302032470703125
11.38,-0.005964681971818209,0.03454066812992096,-0.00014434332842938602,-0.2109222412109375,0.9611663818359375,-0.1319122314453125
11.4,0.00694818701595068,0.02550402842462063,0.006077067460864782,-0.207855224609375,0.963134765625,-0.1336669921875
11.42,0.014360830187797546,-0.030308637768030167,0.008827047422528267,-0.20599365234375,0.9642486572265625,-0.136627197265625
11.44,0.013814881443977356,-0.04847698658704758,0.007730357814580202,-0.210845947265625,0.966339111328125,-0.1280975341796875
11.46,-0.0010575412306934595,-0.01751001738011837,0.0011054781498387456,-0.2140350341796875,0.96527099609375,-0.1250152587890625
11.48,-0.024921061471104622,0.02426113188266754,-0.005302353762090206,-0.2137908935546875,0.9603118896484375,-0.1259002685546875
11.5,-0.02527632750570774,0.05174947902560234,-0.012163988314568996,-0.2145843505859375,0.96173095703125,-0.1252593994140625
11.52,-0.01534886285662651,0.014507037587463856,-0.01196984387934208,-0.21417236328125,0.960540771484375,-0.1310272216796875
11.54,0.0011076086666435003,-0.023062175139784813,-0.0035984632559120655,-0.2152252197265625,0.9626922607421875,-0.13037109375
11.56,0.016221048310399055,-0.02286883071064949,-0.01085957232862711,-0.210693359375,0.961883544921875,-0.1329803466796875
11.58,0.005784119479358196,-0.0004165183927398175,-0.013599964790046215,-0.21185302734375,0.96612548828125,-0.1351165771484375
11.6,-0.011700598523020744,0.015448997728526592,-0.016759006306529045,-0.2057037353515625,0.9630584716796875,-0.1324005126953125
11.62,-0.008700813166797161,0.01654036156833172,-0.008923985995352268,-0.204925537109375,0.9611358642578125,-0.128509521484375
11.64,0.006967095658183098,-0.028713136911392212,0.0023574302904307842,-0.2032928466796875,0.965179443359375,-0.12939453125
11.66,0.011170895770192146,-0.053820353001356125,0.009035573340952396,-0.2060699462890625,0.9619598388671875,-0.1268463134765625
11.68,-0.003626426449045539,-0.035364117473363876,0.0019291938515380025,-0.2090606689453125,0.96270751953125,-0.1277313232421875
11.7,-0.012804744765162468,0.0018413095967844129,-0.006402505561709404,-0.2140350341796875,0.9668426513671875,-0.12774658203125
11.72,-0.02040673792362213,0.02292449027299881,-0.012055064551532269,-0.2157135009765625,0.962371826171875,-0.1262359619140625
11.74,-0.023604661226272583,0.01967836357653141,-0.009646235965192318,-0.2136993408203125,0.958770751953125,-0.126983642578125
11.76,-0.001913481275551021,0.014096377417445183,-0.012267851270735264,-0.2130279541015625,0.9602203369140625,-0.13055419921875
11.78,0.013361611403524876,-0.013032444752752781,-0.004370247479528189,-0.214019775390625,0.9671478271484375,-0.1372528076171875
11.8,0.01582876406610012,-0.043419644236564636,0.0019952403381466866,-0.2102508544921875,0.9611968994140625,-0.1327667236328125
11.82,0.015933958813548088,-0.02793123386800289,-0.0020184097811579704,-0.2118682861328125,0.963470458984375,-0.12994384765625
11.84,0.010786867700517178,-0.008195611648261547,-0.005650961305946112,-0.2102508544921875,0.961883544921875,-0.128631591796875
11.86,-0.004204066004604101,0.02250717394053936,-0.01070830412209034,-0.2135467529296875,0.9616546630859375,-0.1266937255859375
11.88,-0.012267052195966244,0.0462239533662796,-0.014897456392645836,-0.2100830078125,0.9638671875,-0.126129150390625
11.9,-0.005502357147634029,0.02786225825548172,-0.005797967780381441,-0.2064971923828125,0.965484619140625,-0.1295928955078125
11.92,0.009532252326607704,-0.021443773061037064,0.00440912926569581,-0.2053375244140625,0.9636383056640625,-0.130584716796875
11.94,0.02604944445192814,-0.054596398025751114,0.009678726084530354,-0.2058563232421875,0.9667510986328125,-0.1288604736328125
11.96,0.009476326406002045,-0.035056788474321365,0.004599279258400202,-0.2111968994140625,0.9661712646484375,-0.1279296875
11.98,-0.023730896413326263,0.007997472770512104,0.0012058793799951673,-0.211822509765625,0.9623565673828125,-0.12396240234375
12,-0.03225966915488243,0.030431142076849937,-0.0062365904450416565,-0.213409423828125,0.9584197998046875,-0.1220703125
12.02,-0.01233150064945221,0.036859482526779175,-0.012177570722997189,-0.220428466796875,0.965240478515625,-0.123748779296875
12.04,-0.010450243949890137,-0.00461632339283824,-0.011095527559518814,-0.217376708984375,0.9644622802734375,-0.1312713623046875
12.06,-0.005058141890913248,-0.020241355523467064,-0.008071508258581161,-0.2147979736328125,0.9587554931640625,-0.12884521484375
12.08,0.013032977469265461,0.0009707222343422472,-0.013607421889901161,-0.2125396728515625,0.9647216796875,-0.1324615478515625
12.1,0.008217183873057365,-0.010244115255773067,-0.011263040825724602,-0.2115020751953125,0.960693359375,-0.1343536376953125
12.12,-0.004806739278137684,-0.005262140184640884,-0.011766910552978516,-0.2107696533203125,0.965667724609375,-0.1258697509765625
12.14,-0.003584881080314517,0.034261833876371384,-0.010901915840804577,-0.2102203369140625,0.9629669189453125,-0.123199462890625
12.16,-0.013184244744479656,0.015926769003272057,-0.004706604406237602,-0.2052764892578125,0.9647369384765625,-0.1264801025390625
12.18,-0.013100089505314827,-0.006648048758506775,0.005547098349779844,-0.2055511474609375,0.96435546875,-0.1221466064453125
12.2,-0.018390191718935966,0.00714606000110507,0.0037084517534822226,-0.2061920166015625,0.964508056640625,-0.1232147216796875
12.22,-0.031746476888656616,0.03500991687178612,0.0065447185188531876,-0.2083892822265625,0.96240234375,-0.12451171875
12.24,-0.03639476001262665,0.0410425066947937,0.0043590618297457695,-0.2091217041015625,0.9614105224609375,-0.128631591796875
12.26,-0.016340890899300575,0.011541341431438923,0.007601460441946983,-0.215850830078125,0.961639404296875,-0.13067626953125
12.28,0.010929080657660961,-0.031692150980234146,0.0062067629769444466,-0.217987060546875,0.9600830078125,-0.134307861328125
12.3,0.0297914519906044,-0.03569967299699783,0.0024197481106966734,-0.225494384765625,0.9619598388671875,-0.134521484375
12.32,0.020308732986450195,-0.0034261567052453756,-0.01064998097717762,-0.2263946533203125,0.9597625732421875,-0.1296234130859375
12.34,-0.0012234562309458852,0.024515196681022644,-0.012981578707695007,-0.226165771484375,0.9594268798828125,-0.122283935546875
12.36,-0.011409780941903591,0.037996649742126465,-0.0188453271985054,-0.2214813232421875,0.961334228515625,-0.116729736328125
12.38,-0.01932229846715927,0.05206400156021118,-0.01302259135991335,-0.22113037109375,0.9652557373046875,-0.1175384521484375
12.4,-0.030109699815511703,0.03063913621008396,-0.0025308020412921906,-0.2106781005859375,0.9614105224609375,-0.119659423828125
12.42,-0.014073740690946579,0.007244863547384739,0.004996090196073055,-0.2042694091796875,0.9613037109375,-0.1212158203125
12.44,0.003728425595909357,-0.014670821838080883,0.013922739773988724,-0.207855224609375,0.9644775390625,-0.12994384765625
12.46,0.003175287041813135,-0.026375681161880493,0.010557569563388824,-0.2081451416015625,0.9661102294921875,-0.130950927734375
12.48,0.0028730181511491537,-0.01064811646938324,0.007144995033740997,-0.2141571044921875,0.9620819091796875,-0.129852294921875
12.5,-0.0007150587625801563,0.006268814671784639,-0.0012990899849683046,-0.214691162109375,0.9606781005859375,-0.1290130615234375
12.52,0.002947852946817875,0.02099236659705639,0.0034463966730982065,-0.2215118408203125,0.96282958984375,-0.125732421875
12.54,-0.0012961605098098516,0.0051625375635921955,0.005599562544375658,-0.2187347412109375,0.9608917236328125,-0.12335205078125
12.56,-0.00250550196506083,0.018083395436406136,0.004576908424496651,-0.218536376953125,0.95965576171875,-0.12005615234375
12.58,-0.0001960086519829929,0.020486366003751755,0.0046179210767149925,-0.217254638671875,0.9644927978515625,-0.126373291015625
12.6,-0.00026498452643863857,-0.008346347138285637,0.006170277949422598,-0.21087646484375,0.9650115966796875,-0.126922607421875
12.62,0.01708444394171238,-0.01145931612700224,0.008768457919359207,-0.212066650390625,0.96490478515625,-0.12298583984375
12.64,0.022649917751550674,-0.014537131413817406,0.014427941292524338,-0.2083740234375,0.9598541259765625,-0.1259002685546875
12.66,0.007203318178653717,-0.016870858147740364,0.021706094965338707,-0.2081146240234375,0.9615325927734375,-0.1250152587890625
12.68,-0.009937052614986897,-0.014305702410638332,0.01756221614778042,-0.2085723876953125,0.96429443359375,-0.1186065673828125
12.7,0.0014572817599400878,0.0072776200249791145,0.011805526912212372,-0.2133026123046875,0.9651641845703125,-0.120941162109375
12.72,0.007691741921007633,0.0075902752578258514,0.004307663068175316,-0.214996337890625,0.9633636474609375,-0.124847412109375
12.74,0.0006237123161554337,0.002894856035709381,0.005258411634713411,-0.2163238525390625,0.962799072265625,-0.125335693359375
12.76,-0.0007579356315545738,0.0017741979099810123,0.009724532254040241,-0.2131805419921875,0.960906982421875,-0.120849609375
12.78,0.005285575985908508,-0.005309011787176132,0.012915532104671001,-0.211700439453125,0.9607086181640625,-0.123870849609375
12.8,0.013822604902088642,-0.01966984197497368,0.008394017815589905,-0.2153167724609375,0.9619598388671875,-0.1259918212890625
12.82,0.02671949565410614,-0.02955416403710842,0.0052237906493246555,-0.2162322998046875,0.9603729248046875,-0.1262664794921875
12.84,0.02191115729510784,-0.015233547426760197,0.0003081277245655656,-0.216949462890625,0.9652862548828125,-0.1252593994140625
12.86,0.011172492988407612,0.023519441485404968,-0.0029467877466231585,-0.214141845703125,0.9617462158203125,-0.122650146484375
12.88,-0.005677859298884869,0.042753588408231735,0.0015001586871221662,-0.2102203369140625,0.96356201171875,-0.12188720703125
12.9,-0.006491455249488354,0.010152502916753292,0.009178318083286285,-0.2061309814453125,0.96514892578125,-0.1214752197265625
12.92,0.0060054282657802105,-0.010952250100672245,0.012574381195008755,-0.2066497802734375,0.96368408203125,-0.121490478515625
12.94,0.015384016558527946,-0.018562765792012215,0.01324043795466423,-0.2065582275390625,0.9654998779296875,-0.1280975341796875
12.96,0.007193997036665678,-0.016175508499145508,0.010159160941839218,-0.2095184326171875,0.96380615234375,-0.1310577392578125
12.98,0.01318238116800785,0.014899320900440216,0.0033803503029048443,-0.2126007080078125,0.9617462158203125,-0.1280975341796875
13,0.01471609529107809,0.010325341485440731,0.000493750034365803,-0.213623046875,0.9631805419921875,-0.1298980712890625
13.02,0.00983425509184599,-0.0038184402510523796,0.0018040252616629004,-0.2147674560546875,0.9617767333984375,-0.1258697509765625
13.04,0.006572415120899677,0.0175640806555748,0.0028666264843195677,-0.2122650146484375,0.9631195068359375,-0.122955322265625
13.06,-0.005194495897740126,0.017359549179673195,0.0010388991795480251,-0.21197509765625,0.9682159423828125,-0.1258697509765625
13.08,-0.0006567355012521148,0.01074132788926363,-0.0007355650886893272,-0.2112884521484375,0.9632415771484375,-0.124969482421875
13.1,0.014706774614751339,0.019243203103542328,-0.0009629990672692657,-0.21002197265625,0.9622955322265625,-0.1292266845703125
13.12,0.016027435660362244,-0.007831291295588017,0.006963100749999285,-0.2051544189453125,0.963623046875,-0.1350555419921875
13.14,0.015390141867101192,-0.016685502603650093,0.0073295519687235355,-0.204376220703125,0.9672088623046875,-0.13018798828125
13.16,0.02189810760319233,-0.00538571085780859,0.00917645450681448,-0.204833984375,0.963592529296875,-0.131805419921875
13.18,0.013130716048181057,-0.006709568202495575,0.010785003192722797,-0.203826904296875,0.963531494140625,-0.1301422119140625
13.2,0.00048123320448212326,0.013562680222094059,0.009278452955186367,-0.2060546875,0.96527099609375,-0.1262664794921875
13.22,-0.003737214021384716,0.02787051349878311,0.006209426559507847,-0.2049407958984375,0.964202880859375,-0.12811279296875
13.24,-0.0038107172586023808,0.005572131834924221,0.009815879166126251,-0.207122802734375,0.9630889892578125,-0.12841796875
13.26,0.010123208165168762,-0.00012516857532318681,0.005248824134469032,-0.2112579345703125,0.9649200439453125,-0.1281890869140625
13.28,0.010675814002752304,0.0014956312952563167,0.005848567932844162,-0.2115631103515625,0.9639129638671875,-0.131439208984375
13.3,-0.0019827233627438545,0.007986820302903652,0.001508680754341185,-0.213226318359375,0.9646148681640625,-0.1324005126953125
13.32,-0.0038983351550996304,0.020624052733182907,0.00030599720776081085,-0.21331787109375,0.9614715576171875,-0.12969970703125
13.34,0.005825664848089218,0.02249705232679844,-0.003059173235669732,-0.214141845703125,0.9611968994140625,-0.1311492919921875
13.36,0.017841314896941185,0.004372111521661282,0.000922252656891942,-0.2117767333984375,0.96307373046875,-0.132781982421875
13.38,0.01744690164923668,-0.019063172861933708,-0.0020716730505228043,-0.21038818359375,0.96453857421875,-0.1325531005859375
13.4,0.018323080614209175,0.003983289934694767,-0.004236556589603424,-0.2110748291015625,0.9652862548828125,-0.1281585693359375
13.42,0.004456267226487398,0.022729814052581787,-0.012659070082008839,-0.206817626953125,0.961822509765625,-0.1293182373046875
13.44,-0.01013838779181242,0.03657984733581543,-0.008324774913489819,-0.2076416015625,0.963348388671875,-0.1267547607421875
13.46,-0.014576013199985027,0.036071717739105225,-0.003900199430063367,-0.20623779296875,0.9647064208984375,-0.1272125244140625
13.48,-0.004674912896007299,0.02598526142537594,-0.0007563377148471773,-0.2054290771484375,0.96356201171875,-0.130279541015625
13.5,0.007301056291908026,0.0054482948035001755,0.006084790453314781,-0.2039794921875,0.964447021484375,-0.1345367431640625
13.52,0.015532353892922401,-0.02569364570081234,0.009105081669986248,-0.202667236328125,0.964447021484375,-0.135467529296875
13.54,0.028111528605222702,-0.006939132697880268,0.000752875639591366,-0.208740234375,0.9642333984375,-0.1323394775390625
13.56,0.017942247912287712,0.03080425225198269,-0.0007531419396400452,-0.208587646484375,0.9623565673828125,-0.1340789794921875
13.58,-0.0070371367037296295,0.03842941299080849,0.00896926037967205,-0.2034149169921875,0.9625701904296875,-0.12908935546875
13.6,-0.020720457658171654,0.015481487847864628,0.01070883683860302,-0.2035369873046875,0.9612884521484375,-0.1251373291015625
13.62,0.0037768951151520014,0.01561224926263094,0.01401941291987896,-0.2055511474609375,0.9652252197265625,-0.1268310546875
13.64,0.004738828632980585,-0.007630755193531513,0.012197543866932392,-0.2086181640625,0.9659881591796875,-0.135986328125
13.66,-0.005406483076512814,-0.0014937670202925801,0.014020211063325405,-0.21014404296875,0.9638671875,-0.1327667236328125
13.68,0.003659183392301202,0.019097793847322464,0.008474977687001228,-0.2108001708984375,0.9616241455078125,-0.134124755859375
13.7,0.01721227541565895,0.00481259822845459,0.005154281854629517,-0.2124481201171875,0.9611663818359375,-0.136505126953125
13.72,0.022535135969519615,-0.004347610287368298,0.0000010652644277797663,-0.215301513671875,0.962310791015625,-0.1344451904296875
13.74,0.017475396394729614,-0.0046512107364833355,0.003882622579112649,-0.2165985107421875,0.9629364013671875,-0.1340484619140625
13.76,0.0076027922332286835,-0.007645668927580118,0.0024642229545861483,-0.2124176025390625,0.9603118896484375,-0.13055419921875
13.78,0.017418405041098595,0.010583668015897274,-0.002493517706170678,-0.2122955322265625,0.96337890625,-0.12774658203125
13.8,0.00896553136408329,0.018663698807358742,-0.0017235978739336133,-0.21087646484375,0.968841552734375,-0.1325225830078125
13.82,-0.002275138394907117,0.01338744442909956,-0.0002585929469205439,-0.2073211669921875,0.9610595703125,-0.131378173828125
13.84,0.004258926957845688,0.007925300858914852,0.007392934989184141,-0.2027130126953125,0.961517333984375,-0.1326446533203125
13.86,0.0208863727748394,-0.012103001587092876,0.00820839498192072,-0.2018280029296875,0.9665985107421875,-0.1371612548828125
13.88,0.025859827175736427,-0.018244517967104912,0.010730142705142498,-0.20330810546875,0.96661376953125,-0.1363525390625
13.9,0.014548849314451218,-0.012402607128024101,0.012989035807549953,-0.204437255859375,0.961944580078125,-0.13470458984375
13.92,0.008729309774935246,0.011056113056838512,0.00950775109231472,-0.2066497802734375,0.964385986328125,-0.1317138671875
13.94,0.0028192223981022835,0.014207165688276291,0.01360262744128704,-0.20953369140625,0.963165283203125,-0.1318817138671875
13.96,-0.006794789340347052,0.009362875483930111,0.01871829479932785,-0.209747314453125,0.961517333984375,-0.1301422119140625
13.98,-0.0043532028794288635,0.005379319190979004,0.011406851932406425,-0.20916748046875,0.962310791015625,-0.1334075927734375
14,0.014070545323193073,0.013410613872110844,0.007125020958483219,-0.212860107421875,0.9635162353515625,-0.139739990234375
14.02,0.02629312314093113,0.007391337305307388,0.0016564861871302128,-0.2095947265625,0.9614410400390625,-0.1443939208984375
14.04,0.02375779300928116,0.01678057760000229,0.00395585922524333,-0.2080841064453125,0.9614410400390625,-0.14056396484375
14.06,0.01525698322802782,0.025544242933392525,0.004923386033624411,-0.20196533203125,0.964202880859375,-0.139923095703125
14.08,0.00833675917237997,0.01432327926158905,0.008840363472700119,-0.19989013671875,0.9615478515625,-0.1370086669921875
14.1,0.018190188333392143,0.009007609449326992,0.010961570776998997,-0.201171875,0.967498779296875,-0.135162353515625
14.12,0.019514845684170723,-0.01853560097515583,0.007158310618251562,-0.2026519775390625,0.9677581787109375,-0.13555908203125
14.14,0.0143533730879426,-0.007345797028392553,0.011631621979176998,-0.2059783935546875,0.9613189697265625,-0.1314849853515625
14.16,-0.0012365056900307536,0.01853986270725727,0.004865062423050404,-0.204254150390625,0.9634246826171875,-0.1325531005859375
14.18,-0.015032212249934673,0.03572710603475571,0.0075902752578258514,-0.207763671875,0.962982177734375,-0.1316070556640625
14.2,-0.013316337950527668,0.0406065471470356,0.003644003299996257,-0.20782470703125,0.96240234375,-0.133392333984375
14.22,-0.0046091326512396336,0.04843571037054062,-0.00022743394947610795,-0.2072601318359375,0.964111328125,-0.1389923095703125
14.24,-0.005479720421135426,0.05531598627567291,0.0021936458069831133,-0.2063751220703125,0.9643096923828125,-0.14373779296875
14.26,-0.0032112395856529474,0.04785540699958801,0.00914476253092289,-0.1956024169921875,0.96112060546875,-0.1451263427734375
14.28,0.010280334390699863,0.019760655239224434,0.014672951772809029,-0.194366455078125,0.9652862548828125,-0.1463775634765625
14.3,0.030909180641174316,-0.014692925848066807,0.020787836983799934,-0.1954345703125,0.964508056640625,-0.1480255126953125
14.32,0.03455771133303642,-0.03303677961230278,0.02220277301967144,-0.198089599609375,0.9645233154296875,-0.14447021484375
14.34,0.02165576070547104,-0.015002385713160038,0.013739514164626598,-0.2009124755859375,0.965850830078125,-0.139404296875
14.36,-0.0051598744466900826,0.022772690281271935,-0.0025033713318407536,-0.2076416015625,0.9665985107421875,-0.136444091796875
14.38,-0.014179201796650887,0.050984885543584824,-0.014273744076490402,-0.2088470458984375,0.9639434814453125,-0.1342926025390625
14.4,-0.013392504304647446,0.0566297248005867,-0.016504408791661263,-0.2113800048828125,0.9637298583984375,-0.1325531005859375
14.42,-0.009810286574065685,0.05205734074115753,-0.015329687856137753,-0.2087554931640625,0.961395263671875,-0.133575439453125
14.44,-0.01991059072315693,0.04945170506834984,-0.007421963382512331,-0.2060089111328125,0.9665679931640625,-0.1347503662109375
14.46,-0.03569088503718376,0.03760836273431778,0.0003126551164314151,-0.198944091796875,0.95892333984375,-0.1353912353515625
14.48,-0.02485208585858345,0.027067037299275398,0.004887699615210295,-0.198028564453125,0.96429443359375,-0.14031982421875
14.5,0.005023520905524492,0.0041337586008012295,0.0054733287543058395,-0.200164794921875,0.9649810791015625,-0.1472015380859375
14.52,0.0289381742477417,-0.02532932534813881,0.010912302881479263,-0.2006072998046875,0.962005615234375,-0.148681640625
14.54,0.026668095961213112,-0.05059153959155083,0.0129363052546978,-0.200347900390625,0.963958740234375,-0.14312744140625
14.56,0.021520737558603287,-0.04685592278838158,0.010691792704164982,-0.2046356201171875,0.96453857421875,-0.1369171142578125
14.58,0.006706106010824442,-0.023061642423272133,0.005218996666371822,-0.207855224609375,0.9623870849609375,-0.1313018798828125
14.6,-0.009677660651504993,0.02220889925956726,-0.0031997880432754755,-0.2138214111328125,0.96240234375,-0.130157470703125
14.62,-0.02082591876387596,0.058877166360616684,-0.011669439263641834,-0.2134552001953125,0.96258544921875,-0.1311798095703125
14.64,-0.024208666756749153,0.0563034862279892,-0.014483335427939892,-0.2074432373046875,0.96087646484375,-0.13555908203125
14.66,-0.004567853640764952,0.0388651080429554,-0.00612393906340003,-0.2029876708984375,0.9653167724609375,-0.1410980224609375
14.68,0.005811017472296953,-0.005606220569461584,0.003439206164330244,-0.1986236572265625,0.9675445556640625,-0.1460113525390625
14.7,0.010864632204174995,-0.023958595469594002,0.014044445939362049,-0.1952972412109375,0.962646484375,-0.14349365234375
14.72,0.019120430573821068,-0.016406403854489326,0.012311527505517006,-0.1949310302734375,0.96575927734375,-0.144866943359375
14.74,0.01605886034667492,-0.027599403634667397,0.014181332662701607,-0.1983795166015625,0.96484375,-0.145355224609375
14.76,0.01558029092848301,-0.023925039917230606,0.011516041122376919,-0.2013702392578125,0.964752197265625,-0.1397705078125
14.78,0.007623564917594194,-0.002217081608250737,0.008431301452219486,-0.2047271728515625,0.9639892578125,-0.1368255615234375
14.8,-0.007447796408087015,0.014405304566025734,0.0041401502676308155,-0.2059326171875,0.9610748291015625,-0.135040283203125
14.82,-0.006469883490353823,0.032044485211372375,-0.0020538298413157463,-0.2061004638671875,0.9639892578125,-0.134979248046875
14.84,0.0019089538836851716,0.028439896181225777,-0.0024058998096734285,-0.20562744140625,0.96661376953125,-0.138336181640625
14.86,0.0016205335268750787,0.020267987623810768,0.00007323692989302799,-0.2003173828125,0.96337890625,-0.1408843994140625
14.88,0.00472657848149538,0.01119033619761467,0.006674946751445532,-0.19696044921875,0.9644927978515625,-0.1399078369140625
14.9,0.008665659464895725,-0.011887818574905396,0.015792012214660645,-0.196380615234375,0.9630584716796875,-0.1411895751953125
14.92,0.008987369947135448,-0.03339497372508049,0.016985908150672913,-0.196502685546875,0.964080810546875,-0.14031982421875
14.94,0.014386928640305996,-0.019462646916508675,0.008905877359211445,-0.2006683349609375,0.964080810546875,-0.1388092041015625
14.96,0.006391586735844612,0.004560929723083973,0.00503896689042449,-0.2052154541015625,0.966766357421875,-0.1395111083984375
14.98,-0.007059773895889521,0.015396533533930779,-0.0003989415417890996,-0.2058563232421875,0.9611968994140625,-0.1377410888671875
15,-0.0003091930120717734,0.027233485132455826,-0.005031243897974491,-0.2059173583984375,0.962799072265625,-0.1349029541015625
15.02,0.006194512825459242,0.021027786657214165,-0.006640325766056776,-0.205474853515625,0.96246337890625,-0.140411376953125
15.04,0.00777776213362813,0.003305781865492463,-0.002472212305292487,-0.20196533203125,0.9636993408203125,-0.1403045654296875
15.06,0.008290153928101063,0.014123542234301567,-0.002040247665718198,-0.19915771484375,0.963714599609375,-0.1399078369140625
15.08,0.010515757836401463,0.024592161178588867,-0.0013110742438584566,-0.1959381103515625,0.9648895263671875,-0.140594482421875
15.1,0.0024399880785495043,0.012322712689638138,0.0008476841612718999,-0.194854736328125,0.9642791748046875,-0.1406097412109375
15.12,0.005398227367550135,0.009694439359009266,0.0070363376289606094,-0.1945037841796875,0.9648895263671875,-0.13665771484375
15.14,0.008469917811453342,0.014019944705069065,0.006115416996181011,-0.195068359375,0.9655914306640625,-0.13922119140625
15.16,0.006388923618942499,-0.0023702133912593126,0.008860336616635323,-0.194976806640625,0.96551513671875,-0.143035888671875
15.18,0.003936151973903179,0.0018745990237221122,0.00971707608550787,-0.197357177734375,0.9647369384765625,-0.139495849609375
15.2,0.005558549892157316,0.014451110735535622,0.00353428116068244,-0.1993408203125,0.9616546630859375,-0.13946533203125
15.22,0.002180862706154585,0.024234766140580177,0.0035260252188891172,-0.2006988525390625,0.966094970703125,-0.1416015625
15.24,-0.005793706979602575,0.0177579578012228,0.00245090713724494,-0.197723388671875,0.9661407470703125,-0.1406402587890625
15.26,-0.003939081449061632,0.014843128621578217,0.004804076161235571,-0.1985321044921875,0.9643707275390625,-0.137176513671875
15.28,-0.004065847955644131,0.0032956618815660477,0.007006776984781027,-0.198028564453125,0.965057373046875,-0.139617919921875
15.3,-0.005919940769672394,0.0015161376213654876,0.010757306590676308,-0.1982421875,0.9637908935546875,-0.141265869140625
15.32,0.004063184838742018,-0.008447546511888504,0.004197940696030855,-0.2009735107421875,0.9605712890625,-0.14190673828125
15.34,0.013510482385754585,-0.0129924975335598,0.0012295814231038094,-0.2032623291015625,0.96234130859375,-0.1438446044921875
15.36,0.011948804371058941,-0.006725813262164593,-0.0017859158106148243,-0.2074737548828125,0.967010498046875,-0.141021728515625
15.38,-0.008051535114645958,0.024924257770180702,-0.009574863128364086,-0.204345703125,0.9607696533203125,-0.1372528076171875
15.4,-0.01715661585330963,0.05342141166329384,-0.012472914531826973,-0.2036285400390625,0.962188720703125,-0.1397247314453125
15.42,-0.007339139468967915,0.03542430326342583,-0.0038389465771615505,-0.199127197265625,0.9664154052734375,-0.143096923828125
15.44,0.0133261913433671,-0.011152253486216068,0.0011377023765817285,-0.1978759765625,0.9628143310546875,-0.1424560546875
15.46,0.02863164432346821,-0.022650716826319695,0.006058158818632364,-0.196197509765625,0.963653564453125,-0.1438751220703125
15.48,0.0022474415600299835,-0.022585470229387283,0.013099290430545807,-0.19512939453125,0.965667724609375,-0.143890380859375
15.5,-0.018611768260598183,0.015121694654226303,0.006015548016875982,-0.1960601806640625,0.9641571044921875,-0.1374359130859375
15.52,-0.013073990121483803,0.026932016015052795,-0.0009510148083791137,-0.20068359375,0.9647216796875,-0.140869140625
15.54,-0.00032623723382130265,0.009674998000264168,0.0010335728293284774,-0.202178955078125,0.96258544921875,-0.1431884765625
15.56,0.014942198060452938,-0.014874819666147232,0.0011110707418993115,-0.2016754150390625,0.9658203125,-0.1459503173828125
15.58,0.011172759346663952,-0.03760702908039093,0.005803560372442007,-0.200531005859375,0.96014404296875,-0.1429290771484375
15.6,0.005316734779626131,-0.029386650770902634,-0.001425057533197105,-0.2047271728515625,0.9615478515625,-0.140380859375
15.62,-0.0016194682102650404,-0.011215902864933014,-0.005351622123271227,-0.2071075439453125,0.9654998779296875,-0.1400299072265625
15.64,-0.0029174929950386286,0.0023036343045532703,-0.012914733029901981,-0.20867919921875,0.96331787109375,-0.137420654296875
15.66,-0.007654990069568157,0.0013691311469301581,-0.017298296093940735,-0.207244873046875,0.9608306884765625,-0.13507080078125
15.68,-0.005136172287166119,-0.0039036613889038563,-0.011826831847429276,-0.205352783203125,0.9636688232421875,-0.1352386474609375
15.7,-0.01152829173952341,-0.02034521847963333,-0.004885036498308182,-0.202301025390625,0.96697998046875,-0.1356353759765625
15.72,-0.014244182966649532,-0.005796370096504688,-0.0060445768758654594,-0.1998748779296875,0.9630126953125,-0.13543701171875
15.74,-0.013015666976571083,0.02870647981762886,-0.013076653704047203,-0.2001800537109375,0.960357666015625,-0.1410675048828125
15.76,-0.0018186726374551654,0.03483707457780838,-0.010791394859552383,-0.20111083984375,0.964569091796875,-0.148040771484375
15.78,0.003620833856984973,-0.006653907708823681,-0.002207760466262698,-0.19451904296875,0.9635772705078125,-0.1492462158203125
15.8,0.023493075743317604,-0.037455763667821884,0.007261907681822777,-0.193115234375,0.96405029296875,-0.145294189453125
15.82,0.024052871391177177,-0.04649746045470238,0.01187929604202509,-0.19775390625,0.9665679931640625,-0.1406707763671875
15.84,0.008246212266385555,-0.0321161262691021,0.009876865893602371,-0.19775390625,0.9665679931640625,-0.1406707763671875
15.86,-0.002891660202294588,0.007298126816749573,0.00007243797881528735,-0.1981964111328125,0.9591064453125,-0.13897705078125
15.88,-0.0007635282818228006,0.023907463997602463,-0.005122590344399214,-0.2030792236328125,0.962371826171875,-0.1420135498046875
15.9,0.004518052563071251,0.003323625074699521,-0.003117230022326112,-0.199951171875,0.96490478515625,-0.13714599609375
15.92,-0.001806155894882977,-0.004811533261090517,-0.0023675502743571997,-0.199951171875,0.96490478515625,-0.13714599609375
15.94,-0.015093731693923473,0.027248399332165718,-0.0008562062866985798,-0.1982421875,0.9628448486328125,-0.1373748779296875
15.96,-0.025240641087293625,0.03648051247000694,0.002377936616539955,-0.196136474609375,0.966217041015625,-0.142242431640625
15.98,-0.01335868239402771,0.0011925635626539588,0.012806875631213188,-0.196075439453125,0.963775634765625,-0.1433258056640625
16,0.01363352034240961,-0.027889154851436615,0.010408432222902775,-0.196075439453125,0.963775634765625,-0.1433258056640625
16.02,0.019055183976888657,-0.0274507999420166,0.006612096447497606,-0.2006378173828125,0.9643402099609375,-0.1452178955078125
16.04,0.010665161535143852,0.005120193585753441,0.0046908920630812645,-0.199432373046875,0.96405029296875,-0.1445159912109375
16.06,0.0006625944515690207,0.01227610744535923,-0.0009201221400871873,-0.19622802734375,0.962310791015625,-0.1426544189453125
16.08,0.0002263686910737306,0.026629745960235596,-0.003596332622691989,-0.2005767822265625,0.962799072265625,-0.135406494140625
16.1,-0.010482735000550747,0.020714865997433662,0.004853344522416592,-0.19775390625,0.9657745361328125,-0.13580322265625
16.12,-0.024410534650087357,-0.011174623854458332,0.008499212563037872,-0.197357177734375,0.96514892578125,-0.1330718994140625
16.14,-0.017537448555231094,-0.008802546188235283,0.010637996718287468,-0.202362060546875,0.9635009765625,-0.1340179443359375
16.16,-0.011473963037133217,-0.008371380157768726,0.007871504873037338,-0.204559326171875,0.9608306884765625,-0.1424560546875
16.18,-0.005162005312740803,-0.025549035519361496,0.007788947317749262,-0.2049560546875,0.95947265625,-0.1433258056640625
16.2,0.007333812769502401,-0.012870791368186474,0.001609348226338625,-0.207855224609375,0.9608612060546875,-0.1411590576171875
16.22,0.016258863732218742,-0.00028762139845639467,-0.0038895467296242714,-0.20867919921875,0.964752197265625,-0.1430816650390625
16.24,0.006878145970404148,-0.007354585453867912,-0.010028133168816566,-0.208038330078125,0.9663238525390625,-0.1387939453125
16.26,-0.0024027039762586355,0.005518335849046707,-0.01227317750453949,-0.20587158203125,0.9638671875,-0.1348724365234375
16.28,-0.004262655507773161,0.03891411051154137,-0.01756221614778042,-0.203887939453125,0.9619903564453125,-0.1374359130859375
16.3,-0.0035065840929746628,0.048053812235593796,-0.01444205641746521,-0.197265625,0.9620208740234375,-0.14154052734375
16.32,0.002767024328932166,0.019870111718773842,-0.005428853910416365,-0.192901611328125,0.96527099609375,-0.1429290771484375
16.34,0.011872904375195503,-0.009416671469807625,0.003534547286108136,-0.192047119140625,0.9669342041015625,-0.140594482421875
16.36,0.012133628129959106,-0.025728533044457436,0.011842278763651848,-0.19354248046875,0.96624755859375,-0.1382598876953125
16.38,0.005037635564804077,-0.021836057305336,0.013021259568631649,-0.1955718994140625,0.965087890625,-0.1356201171875
16.4,-0.0017361147329211235,-0.0011084076249971986,0.012123508378863335,-0.197967529296875,0.964935302734375,-0.135955810546875
16.42,-0.009427856653928757,0.0022128205746412277,0.011803928762674332,-0.200408935546875,0.9659881591796875,-0.137298583984375
16.44,-0.004442152567207813,-0.004613660275936127,0.009817477315664291,-0.2027587890625,0.9610595703125,-0.137847900390625
16.46,0.009345831349492073,0.00872345082461834,0.0027806065045297146,-0.2039947509765625,0.9649200439453125,-0.1410675048828125
16.48,0.012801016680896282,0.01630680076777935,-0.00430233683437109,-0.203125,0.961761474609375,-0.1473388671875
16.5,0.009677127934992313,0.02388136461377144,-0.004942294210195541,-0.2014617919921875,0.9609375,-0.1450347900390625
16.52,0.004634166602045298,0.027779433876276016,-0.0010634001810103655,-0.198974609375,0.9658355712890625,-0.1446380615234375
16.54,0.004953479394316673,0.013513944111764431,0.0024607607629150152,-0.1959686279296875,0.965484619140625,-0.14080810546875
16.56,0.010090450756251812,-0.009929596446454525,0.0079735042527318,-0.1935882568359375,0.963165283203125,-0.1373748779296875
16.58,0.01666313223540783,-0.025780996307730675,0.009431318379938602,-0.198272705078125,0.9643402099609375,-0.1384429931640625
16.6,0.015776831656694412,-0.02797357738018036,0.007339405361562967,-0.1992645263671875,0.9652099609375,-0.1377105712890625
16.62,0.0038426751270890236,-0.002621882129460573,0.006688795518130064,-0.2033538818359375,0.9640045166015625,-0.135711669921875
16.64,-0.013614078983664513,0.02256150171160698,0.004291683901101351,-0.202239990234375,0.9610748291015625,-0.1353607177734375
16.66,-0.021639514714479446,0.04051946476101875,-0.0015579492319375277,-0.2012786865234375,0.9613494873046875,-0.13482666015625
16.68,-0.00660543842241168,0.024110395461320877,-0.000957939017098397,-0.20220947265625,0.964508056640625,-0.14129638671875
16.7,0.007815578952431679,0.0022719427943229675,-0.0029984530992805958,-0.2031707763671875,0.9662017822265625,-0.145233154296875
16.72,0.015448465012013912,-0.019229887053370476,0.004151069093495607,-0.2013702392578125,0.9643402099609375,-0.143768310546875
16.74,0.018687933683395386,-0.025978604331612587,0.0033747577108442783,-0.200408935546875,0.9630889892578125,-0.1432647705078125
16.76,0.009386844001710415,-0.006490123458206654,0.0008506136364303529,-0.2029571533203125,0.9647216796875,-0.14227294921875
16.78,-0.004985703621059656,0.006625678390264511,-0.0043803672306239605,-0.20111083984375,0.960784912109375,-0.1379241943359375
16.8,-0.007207312621176243,0.02786066010594368,-0.0057135457172989845,-0.20263671875,0.9615020751953125,-0.136077880859375
16.82,-0.001344896387308836,0.01642531156539917,-0.001651692553423345,-0.2042999267578125,0.966278076171875,-0.141326904296875
16.84,0.006614226847887039,-0.02014947682619095,0.001258876291103661,-0.203399658203125,0.9596099853515625,-0.140594482421875
16.86,0.017039969563484192,-0.02178918570280075,-0.0028274781070649624,-0.204742431640625,0.9624176025390625,-0.1418304443359375
16.88,0.009095760062336922,-0.01420610025525093,-0.009435047395527363,-0.206268310546875,0.966522216796875,-0.1446990966796875
16.9,-0.0018548916559666395,0.010364756919443607,-0.013730459846556187,-0.2040557861328125,0.9596405029296875,-0.1417694091796875
16.92,-0.0020940436515957117,0.04159964248538017,-0.011854262091219425,-0.2020263671875,0.96710205078125,-0.1430511474609375
16.94,-0.006039250176399946,0.03331933915615082,-0.009310944005846977,-0.1959991455078125,0.9639129638671875,-0.144866943359375
16.96,0.001017593895085156,0.015626097097992897,-0.0015696671325713396,-0.1951904296875,0.9625244140625,-0.1435089111328125
16.98,0.0021965752821415663,-0.009034241549670696,0.009976734407246113,-0.192626953125,0.96563720703125,-0.1442108154296875
17,0.004795554094016552,-0.04063211381435394,0.014858308248221874,-0.1918182373046875,0.9648895263671875,-0.1449432373046875
17.02,0.01607510633766651,-0.04631663113832474,0.014188257046043873,-0.1985321044921875,0.96331787109375,-0.14349365234375
17.04,0.015425295569002628,-0.026637203991413116,0.004477306269109249,-0.20672607421875,0.964263916015625,-0.14483642578125
17.06,0.0024682176299393177,-0.002183525823056698,-0.004314587451517582,-0.20758056640625,0.9628143310546875,-0.1434326171875
17.08,-0.009431052021682262,0.028965339064598083,-0.009705358184874058,-0.209075927734375,0.9613494873046875,-0.140716552734375
17.1,-0.013843377120792866,0.03514919802546501,-0.014577078633010387,-0.206024169921875,0.9608001708984375,-0.1391754150390625
17.12,-0.008429969660937786,0.02666117250919342,-0.012429505586624146,-0.2038421630859375,0.9638671875,-0.1400146484375
17.14,-0.002064482541754842,0.004319114610552788,-0.0051960935816168785,-0.1993865966796875,0.962127685546875,-0.1422576904296875
17.16,0.012064119800925255,-0.0204584039747715,-0.0020746025256812572,-0.196746826171875,0.9652862548828125,-0.1458892822265625
17.18,0.021684788167476654,-0.028666531667113304,0.0032671659719198942,-0.19647216796875,0.9652862548828125,-0.1480712890625
17.2,0.012258796952664852,-0.025064872577786446,-0.00021944446780253202,-0.1968536376953125,0.9641571044921875,-0.1439056396484375
17.22,0.006389189511537552,-0.0080350236967206,0.004310326185077429,-0.1960906982421875,0.9658203125,-0.1405487060546875
17.24,-0.011116034351289272,0.00809068325906992,0.004338023252785206,-0.1964569091796875,0.962799072265625,-0.1382904052734375
17.26,-0.025657426565885544,0.019651465117931366,0.003306314582005143,-0.1997528076171875,0.964752197265625,-0.13592529296875
17.28,-0.020892765372991562,0.01799524575471878,0.004168645944446325,-0.19989013671875,0.962493896484375,-0.1390838623046875
17.3,-0.006281065288931131,0.00646615494042635,0.007893343456089497,-0.202239990234375,0.9637451171875,-0.1431121826171875
17.32,0.006256830412894487,-0.025117337703704834,0.008192416280508041,-0.2032012939453125,0.963470458984375,-0.1463165283203125
17.34,0.01870657689869404,-0.051598478108644485,0.006623814348131418,-0.203887939453125,0.9618072509765625,-0.145477294921875
17.36,0.021690648049116135,-0.047322776168584824,0.000853809411637485,-0.21026611328125,0.963836669921875,-0.14404296875
17.38,0.005380650516599417,-0.010595119558274746,-0.011091799475252628,-0.2088470458984375,0.9615020751953125,-0.1396026611328125
17.4,-0.010965299792587757,0.0336141511797905,-0.012655873782932758,-0.21063232421875,0.96160888671875,-0.13824462890625
17.42,-0.019271433353424072,0.03665708005428314,-0.01823679357767105,-0.2036895751953125,0.96319580078125,-0.1369781494140625
17.44,-0.002407231368124485,0.03128575161099434,-0.011995144188404083,-0.2042083740234375,0.9619140625,-0.138580322265625
17.46,0.0023494407068938017,0.012749883346259594,-0.002674879040569067,-0.19610595703125,0.966583251953125,-0.141143798828125
17.48,-0.0009811085183173418,-0.017855962738394737,0.009755425155162811,-0.1909942626953125,0.9658203125,-0.1405181884765625
17.5,0.0011574097443372011,-0.029581326991319656,0.01309263240545988,-0.1898345947265625,0.961212158203125,-0.140106201171875
17.52,0.007225422188639641,-0.02624518610537052,0.013338974677026272,-0.1974945068359375,0.966278076171875,-0.141357421875
17.54,0.00971254799515009,-0.021736986935138702,0.007770837750285864,-0.200103759765625,0.9672393798828125,-0.14422607421875
17.56,0.004163319710642099,0.008304535411298275,0.002773415995761752,-0.2047271728515625,0.961822509765625,-0.140228271484375
17.58,-0.008951949886977673,0.017356086522340775,0.002034921431913972,-0.203094482421875,0.9605560302734375,-0.1407623291015625
17.6,-0.011664645746350288,0.009555954486131668,-0.0006926882197149098,-0.2049560546875,0.962249755859375,-0.1389007568359375
17.62,0.004435760900378227,0.014391988515853882,-0.008150071837008,-0.20758056640625,0.9627532958984375,-0.1418304443359375
17.64,0.009282448329031467,0.021270135417580605,-0.012745888903737068,-0.2056884765625,0.96441650390625,-0.144012451171875
17.66,0.003934820648282766,0.03057708404958248,-0.017849570140242577,-0.2020416259765625,0.9623565673828125,-0.1427001953125
17.68,0.0002689792599994689,0.04129843786358833,-0.009616142138838768,-0.197998046875,0.9639892578125,-0.139495849609375
17.7,-0.010485664010047913,0.0237045306712389,0.002826146548613906,-0.1947479248046875,0.9639434814453125,-0.13671875
17.72,-0.011404188349843025,-0.005239769350737333,0.013770939782261848,-0.195343017578125,0.9682464599609375,-0.1338653564453125
17.74,-0.00310524576343596,-0.0028969866689294577,0.012917929328978062,-0.1992645263671875,0.9614410400390625,-0.13470458984375
17.76,-0.0011736550368368626,0.004822984803467989,0.011451059952378273,-0.204833984375,0.96466064453125,-0.1411285400390625
17.78,-0.002919090911746025,0.009702428244054317,0.007427290081977844,-0.2044677734375,0.9613494873046875,-0.1434783935546875
17.8,0.009341304190456867,0.009635583497583866,0.00478277076035738,-0.2061767578125,0.95965576171875,-0.1436309814453125
17.82,0.02142246812582016,0.00782410055398941,-0.0006181196658872068,-0.2065887451171875,0.9613189697265625,-0.1447906494140625
17.84,0.01860058307647705,0.007954062893986702,-0.0007310376968234777,-0.2048492431640625,0.962890625,-0.142669677734375
17.86,0.004355600103735924,0.02785400114953518,0.0009382316493429244,-0.2020111083984375,0.96539306640625,-0.13970947265625
17.88,-0.010500045493245125,0.029083583503961563,0.00714765815064311,-0.1959075927734375,0.9646148681640625,-0.13702392578125
17.9,-0.0007816377910785377,0.0070528495125472546,0.012209794484078884,-0.194610595703125,0.9606475830078125,-0.138671875
17.92,0.01871323399245739,-0.008478705771267414,0.01101749762892723,-0.1991119384765625,0.962310791015625,-0.141937255859375
17.94,0.02329360507428646,-0.025473402813076973,0.013112073764204979,-0.2030792236328125,0.9683837890625,-0.1456451416015625
17.96,0.005032042972743511,-0.03371242433786392,0.010499246418476105,-0.2038421630859375,0.9611663818359375,-0.1371612548828125
17.98,-0.001588841900229454,0.006915164180099964,0.005231247283518314,-0.209136962890625,0.9613037109375,-0.1334075927734375
18,-0.005015264730900526,0.023901071399450302,-0.0054666707292199135,-0.210052490234375,0.961700439453125,-0.13812255859375
18.02,-0.006596649996936321,0.020186495035886765,-0.007590008899569511,-0.210784912109375,0.96026611328125,-0.1393890380859375
18.04,0.0052203284576535225,0.028779450803995132,-0.01513128262013197,-0.207763671875,0.96136474609375,-0.141082763671875
18.06,0.015369635075330734,0.025202292948961258,-0.010318949818611145,-0.2029571533203125,0.9639739990234375,-0.147705078125
18.08,0.014904647134244442,-0.012018579989671707,-0.0037699707318097353,-0.199462890625,0.9635009765625,-0.1466827392578125
18.1,0.02846679463982582,-0.01938594877719879,-0.004113518632948399,-0.194183349609375,0.9611968994140625,-0.144012451171875
18.12,0.022777484729886055,-0.003138535423204303,0.003019491909071803,-0.1949462890625,0.9692230224609375,-0.1433868408203125
18.14,0.002656769473105669,-0.013403156772255898,0.009820406325161457,-0.189971923828125,0.965667724609375,-0.1414947509765625
18.16,-0.0024588967207819223,-0.004081827122718096,0.011622567661106586,-0.194000244140625,0.9635772705078125,-0.135498046875
18.18,0.007648598402738571,0.0038035267498344183,0.00959643442183733,-0.1966705322265625,0.967010498046875,-0.1400146484375
18.2,0.0049156625755131245,-0.012042015790939331,0.01335841603577137,-0.2022705078125,0.9647216796875,-0.1428375244140625
18.22,0.011268899776041508,0.0004170510219410062,0.005526592023670673,-0.2013702392578125,0.963104248046875,-0.1438446044921875
18.24,0.009790578857064247,0.01483433973044157,0.0007115966291166842,-0.2006072998046875,0.962493896484375,-0.146759033203125
18.26,0.00452710734680295,0.01073626708239317,-0.0007068029372021556,-0.2016143798828125,0.9623260498046875,-0.148101806640625
18.28,0.012457734905183315,0.010046509094536304,0.0017057546647265553,-0.2001495361328125,0.9621124267578125,-0.14410400390625
18.3,0.010743990540504456,0.007890946231782436,-0.000945954816415906,-0.199005126953125,0.964630126953125,-0.14471435546875
18.32,0.008167382329702377,-0.005677326582372189,0.006965763866901398,-0.199432373046875,0.9649505615234375,-0.1450042724609375
18.34,0.008599880151450634,-0.017680726945400238,0.00498011102899909,-0.202117919921875,0.961700439453125,-0.1417388916015625
18.36,0.015174957923591137,-0.02123524807393551,0.0046386937610805035,-0.20263671875,0.9644012451171875,-0.1407318115234375
18.38,0.010612430982291698,-0.014571752399206161,0.0008194546680897474,-0.2062835693359375,0.9611358642578125,-0.1406402587890625
18.4,0.0011534150689840317,0.024891234934329987,-0.0033364081755280495,-0.2071685791015625,0.9633026123046875,-0.1415252685546875
18.42,-0.007436877116560936,0.07560474425554276,-0.009877930395305157,-0.201019287109375,0.96142578125,-0.145721435546875
18.44,-0.005988650489598513,0.09025825560092926,-0.008824916556477547,-0.1992950439453125,0.9662017822265625,-0.1504364013671875
18.46,-0.0030479878187179565,0.03504427149891853,0.0005368932615965605,-0.19171142578125,0.96246337890625,-0.1519927978515625
18.48,0.0179358571767807,-0.04727590084075928,0.021981198340654373,-0.1904296875,0.9615936279296875,-0.1476593017578125
18.5,0.043289415538311005,-0.09406231343746185,0.023611586540937424,-0.195587158203125,0.9658203125,-0.1455535888671875
18.52,0.04355839639902115,-0.07339485734701157,0.017947575077414513,-0.2030792236328125,0.9656524658203125,-0.143768310546875
18.54,0.0014444985426962376,-0.014309696853160858,-0.0013411679537966847,-0.2078399658203125,0.960723876953125,-0.139129638671875
18.56,-0.028540564700961113,0.05302273854613304,-0.012634835205972195,-0.21258544921875,0.960235595703125,-0.1346588134765625
18.58,-0.0318351611495018,0.0836791843175888,-0.025054486468434334,-0.212371826171875,0.9598388671875,-0.1381988525390625
18.6,-0.020656809210777283,0.04488252103328705,-0.020124975591897964,-0.2077789306640625,0.960418701171875,-0.1446075439453125
18.62,0.005305815953761339,0.007818774320185184,-0.016028234735131264,-0.2008056640625,0.961700439453125,-0.1494903564453125
18.64,0.02400386892259121,0.004461593925952911,-0.009363141842186451,-0.197113037109375,0.9667205810546875,-0.155029296875
18.66,0.01323857344686985,-0.0032708945218473673,-0.004236556589603424,-0.1888580322265625,0.9640960693359375,-0.1567535400390625
18.68,0.011998872272670269,-0.01762852817773819,0.004867459647357464,-0.1856536865234375,0.96343994140625,-0.1541595458984375
18.7,0.024153806269168854,-0.026814304292201996,0.00785765703767538,-0.187286376953125,0.96441650390625,-0.1499176025390625
18.72,0.02869795821607113,-0.053578805178403854,0.013864949345588684,-0.190521240234375,0.9640655517578125,-0.1499176025390625
18.74,0.021709023043513298,-0.04550010710954666,0.01671879179775715,-0.1985626220703125,0.96417236328125,-0.140411376953125
18.76,0.0054602790623903275,-0.012530705891549587,0.006687197368592024,-0.1985626220703125,0.96417236328125,-0.140411376953125
18.78,-0.015252988785505295,0.026851054280996323,0.0011140003334730864,-0.203765869140625,0.962921142578125,-0.141143798828125
18.8,-0.018551580607891083,0.04645964503288269,-0.00794420950114727,-0.2040863037109375,0.9624481201171875,-0.1457366943359375
18.82,-0.0010000169277191162,0.03236965835094452,-0.006042978726327419,-0.204345703125,0.958740234375,-0.1515350341796875
18.84,0.025106152519583702,0.004540157038718462,-0.0016610135789960623,-0.201629638671875,0.96392822265625,-0.1559295654296875
18.86,0.02967294119298458,-0.021452294662594795,0.0030831415206193924,-0.1961669921875,0.964569091796875,-0.1553497314453125
18.88,0.01884026639163494,-0.02219451777637005,0.01209794171154499,-0.1933746337890625,0.9599151611328125,-0.1488037109375
18.9,0.0057284594513475895,-0.0003755057114176452,0.018912704661488533,-0.192718505859375,0.96624755859375,-0.1479034423828125
18.92,0.0007779093575663865,-0.0030474551022052765,0.014751515351235867,-0.1933746337890625,0.96270751953125,-0.1495513916015625
18.94,0.013491573743522167,-0.011897139251232147,0.01056076493114233,-0.2013092041015625,0.9636077880859375,-0.14910888671875
18.96,0.028007399290800095,-0.028808211907744408,0.004814994987100363,-0.204315185546875,0.9679412841796875,-0.15179443359375
18.98,0.029703034088015556,-0.03253130987286568,0.00242134602740407,-0.208282470703125,0.9627532958984375,-0.1463470458984375
19,0.013916880823671818,-0.003978762775659561,-0.00421232171356678,-0.2088775634765625,0.9604644775390625,-0.1427459716796875
19.02,-0.011634551919996738,0.04722290486097336,-0.011050520464777946,-0.210906982421875,0.9614715576171875,-0.14068603515625
19.04,-0.03470418602228165,0.06186656281352043,-0.009180715307593346,-0.208343505859375,0.9593353271484375,-0.141632080078125
19.06,-0.028791168704628944,0.04055461660027504,-0.0043771713972091675,-0.2057952880859375,0.9609832763671875,-0.146331787109375
19.08,0.0013044163351878524,0.007636614143848419,-0.0007337008719332516,-0.204925537109375,0.963409423828125,-0.15155029296875
19.1,0.022129271179437637,-0.017193900421261787,-0.001062068622559309,-0.203338623046875,0.9605712890625,-0.158203125
19.12,0.027961060404777527,-0.01774943619966507,-0.00047830372932367027,-0.2021636962890625,0.9594573974609375,-0.1599273681640625
19.14,0.02786811627447605,-0.0009534116834402084,-0.0009438242996111512,-0.201568603515625,0.9623260498046875,-0.161468505859375
19.16,0.02720232680439949,-0.017713483422994614,0.0024977787397801876,-0.19647216796875,0.9613494873046875,-0.15826416015625
19.18,0.031566981226205826,-0.03975566849112511,0.006204632576555014,-0.198333740234375,0.9625396728515625,-0.149871826171875
19.2,0.03037921153008938,-0.0386403352022171,0.006293848622590303,-0.20123291015625,0.9649200439453125,-0.1468505859375
19.22,0.014477476477622986,-0.0070861391723155975,0.002360359765589237,-0.2032318115234375,0.96343994140625,-0.14654541015625
19.24,-0.009892045520246029,0.03002953715622425,0.0012090750969946384,-0.20098876953125,0.96075439453125,-0.14752197265625
19.26,-0.015589079819619656,0.03261972963809967,0.004570517223328352,-0.19964599609375,0.9616851806640625,-0.151641845703125
19.28,0.0014572817599400878,-0.0037856835406273603,0.009307747706770897,-0.198760986328125,0.9637451171875,-0.15594482421875
19.3,0.02443796582520008,-0.035773709416389465,0.007666441611945629,-0.1970672607421875,0.959625244140625,-0.1565399169921875
19.32,0.03251240402460098,-0.0322149284183979,0.00887951161712408,-0.199615478515625,0.963165283203125,-0.1596527099609375
19.34,0.018083129078149796,-0.02388269640505314,0.006286924239248037,-0.1987457275390625,0.9636077880859375,-0.158843994140625
19.36,0.014167217537760735,-0.016775252297520638,0.004746552091091871,-0.1989288330078125,0.9612274169921875,-0.1551361083984375
19.38,0.02057957649230957,-0.00782516598701477,0.003631752682849765,-0.201202392578125,0.9625701904296875,-0.1534576416015625
19.4,0.01985999196767807,-0.016146745532751083,0.004649613052606583,-0.2023773193359375,0.96282958984375,-0.1534423828125
19.42,0.0029137644451111555,-0.021637916564941406,0.005459214095026255,-0.20196533203125,0.9600372314453125,-0.14935302734375
19.44,-0.0002031991898547858,-0.006772951222956181,-0.003644536016508937,-0.2014923095703125,0.9630126953125,-0.147857666015625
19.46,-0.0003842941368930042,0.02377004362642765,-0.007711449172347784,-0.2012176513671875,0.96673583984375,-0.1530303955078125
19.48,-0.006822219584137201,0.014676680788397789,-0.010690993629395962,-0.19915771484375,0.9617462158203125,-0.157470703125
19.5,0.0013366405619308352,-0.002290584845468402,-0.003937483765184879,-0.1981353759765625,0.9602508544921875,-0.1543731689453125
19.52,0.015372298657894135,-0.013971475884318352,-0.00230842805467546,-0.1945648193359375,0.9607391357421875,-0.1563568115234375
19.54,0.011620969511568546,-0.013705159537494183,0.001657018787227571,-0.1990814208984375,0.9632568359375,-0.156524658203125
19.56,0.0049042110331356525,-0.004248540848493576,0.0006032059900462627,-0.19561767578125,0.961578369140625,-0.155670166015625
19.58,0.0065681543201208115,0.01781308464705944,0.000604004948399961,-0.19549560546875,0.966064453125,-0.15386962890625
19.6,-0.00583818182349205,0.022517560049891472,0.0020516992080956697,-0.1905364990234375,0.9633636474609375,-0.156341552734375
19.62,-0.0054448326118290424,0.01835477165877819,0.00811997801065445,-0.1904754638671875,0.9629058837890625,-0.1547088623046875
19.64,-0.0010093380697071552,-0.0008341020438820124,0.014479872770607471,-0.1890716552734375,0.96484375,-0.1550750732421875
19.66,0.01125318743288517,-0.034274883568286896,0.02509310282766819,-0.1907196044921875,0.9639129638671875,-0.157257080078125
19.68,0.013375193811953068,-0.05512796714901924,0.028362665325403214,-0.1969757080078125,0.9620513916015625,-0.1541290283203125
19.7,0.012565859593451023,-0.05306188762187958,0.018133729696273804,-0.2024993896484375,0.9618988037109375,-0.1517791748046875
19.72,0.010130930691957474,-0.011967713013291359,0.007960987277328968,-0.20977783203125,0.961456298828125,-0.15167236328125
19.74,-0.002129729837179184,0.04484203830361366,-0.006402239203453064,-0.2118072509765625,0.9621734619140625,-0.1519622802734375
19.76,-0.016949955374002457,0.053090114146471024,-0.006293315906077623,-0.2109832763671875,0.9588470458984375,-0.1511383056640625
19.78,-0.013481720350682735,0.030302777886390686,-0.0016357135027647018,-0.2029876708984375,0.9577789306640625,-0.1504364013671875
19.8,0.008083492517471313,0.003693005535751581,0.0014282532501965761,-0.1994171142578125,0.9620513916015625,-0.154083251953125
19.82,0.019046396017074585,-0.032770730555057526,0.004962800536304712,-0.198394775390625,0.9626312255859375,-0.159393310546875
19.84,0.022913837805390358,-0.03496570512652397,0.006343649700284004,-0.1975860595703125,0.9639739990234375,-0.1557464599609375
19.86,0.014854846522212029,-0.013115801848471165,-0.0006609965930692852,-0.197113037109375,0.964447021484375,-0.1536102294921875
19.88,0.0037230991292744875,0.02040114626288414,0.005455485545098782,-0.198028564453125,0.9620819091796875,-0.1524810791015625
19.9,-0.01347559504210949,0.0312186386436224,0.0038250982761383057,-0.1940765380859375,0.959991455078125,-0.14984130859375
19.92,-0.009523464366793633,0.029085714370012283,0.01079672109335661,-0.1951904296875,0.9636383056640625,-0.1500701904296875
19.94,-0.0014303837670013309,-0.005073588341474533,0.012690494768321514,-0.1922149658203125,0.9644012451171875,-0.1542816162109375
19.96,0.016748087480664253,-0.03664935752749443,0.014698252081871033,-0.193450927734375,0.9633026123046875,-0.1582489013671875
19.98,0.023182017728686333,-0.03922729566693306,0.011942945420742035,-0.1988372802734375,0.9642486572265625,-0.158355712890625
20,0.015841813758015633,-0.022605443373322487,0.004894091282039881,-0.2007598876953125,0.9600830078125,-0.15570068359375
20.02,0.001044491771608591,0.008959938772022724,-0.0017092167399823666,-0.20013427734375,0.960906982421875,-0.151641845703125
20.04,-0.009593505412340164,0.03844273090362549,-0.008258994668722153,-0.201080322265625,0.9620361328125,-0.1505126953125
20.06,-0.008958874270319939,0.04282602667808533,-0.009929330088198185,-0.1990509033203125,0.9623870849609375,-0.15130615234375
20.08,-0.006318349856883287,0.03490046039223671,-0.012868127785623074,-0.1967926025390625,0.963836669921875,-0.150482177734375
20.1,-0.0005520732956938446,0.027485420927405357,-0.006988401059061289,-0.1947784423828125,0.96356201171875,-0.155029296875
20.12,-0.0024559672456234694,0.00324825756251812,-0.002295911079272628,-0.1901092529296875,0.965118408203125,-0.1533355712890625
20.14,0.002037318190559745,-0.005712214391678572,-0.00012783173588104546,-0.1908416748046875,0.96514892578125,-0.1543731689453125
20.16,0.00355851580388844,0.0030511836521327496,0.0004527373821474612,-0.1931610107421875,0.9649505615234375,-0.154022216796875
20.18,-0.001205080421641469,0.019524699077010155,0.001190433045849204,-0.1942138671875,0.9622955322265625,-0.1532745361328125
20.2,-0.01576724462211132,0.02960263378918171,0.002064482541754842,-0.1958160400390625,0.9635772705078125,-0.1511993408203125
20.22,-0.016167517751455307,0.039808932691812515,-0.0016682040877640247,-0.1955718994140625,0.959014892578125,-0.151458740234375
20.24,-0.005101018585264683,0.03295848146080971,-0.002558232517912984,-0.1940765380859375,0.96240234375,-0.1590423583984375
20.26,0.006016080733388662,0.004662662278860807,0.00407383730635047,-0.1906890869140625,0.96588134765625,-0.1600799560546875
20.28,0.013316604308784008,-0.025470739230513573,0.0054211304523050785,-0.1912689208984375,0.9652099609375,-0.15631103515625
20.3,0.012277971021831036,-0.014679876156151295,0.005759884603321552,-0.1933135986328125,0.961883544921875,-0.15301513671875
20.32,-0.00230816169641912,-0.00046152580762282014,0.004781705792993307,-0.1959991455078125,0.9611358642578125,-0.1528472900390625
20.34,-0.001988049829378724,0.021434718742966652,-0.004743622615933418,-0.2014923095703125,0.9607696533203125,-0.152374267578125
20.36,-0.0036967338528484106,0.055746085941791534,-0.009048622101545334,-0.2001190185546875,0.9629058837890625,-0.15606689453125
20.38,-0.017491908743977547,0.04478584602475166,-0.0020903151016682386,-0.19573974609375,0.9622802734375,-0.1542205810546875
20.4,-0.017734255641698837,0.009501625783741474,0.007848868146538734,-0.190521240234375,0.9588623046875,-0.1520233154296875
20.42,0.0004700479330495,-0.0328463651239872,0.010232397355139256,-0.191162109375,0.9652099609375,-0.15264892578125
20.44,0.005082643125206232,-0.04749668017029762,0.012763199396431446,-0.19830322265625,0.9654541015625,-0.153228759765625
20.46,-0.006307696923613548,-0.020602745935320854,0.008247011341154575,-0.201751708984375,0.958709716796875,-0.151885986328125
20.48,-0.018577944487333298,0.03808826208114624,-0.007756723091006279,-0.2068023681640625,0.9595947265625,-0.1519775390625
20.5,-0.02563825249671936,0.06268654763698578,-0.01570812240242958,-0.2094573974609375,0.9591522216796875,-0.1586151123046875
20.52,-0.015806926414370537,0.04560929536819458,-0.0140143521130085,-0.2047882080078125,0.9585723876953125,-0.160430908203125
20.54,0.006943659856915474,0.010899785906076431,-0.008434764109551907,-0.2016754150390625,0.96295166015625,-0.161590576171875
20.56,0.02611948549747467,-0.013759221881628036,-0.0028186896815896034,-0.1973876953125,0.9619140625,-0.163543701171875
20.58,0.023019298911094666,-0.025709889829158783,0.0033569145016372204,-0.1930694580078125,0.96270751953125,-0.160858154296875
20.6,0.007119428366422653,-0.015296398662030697,0.007871771231293678,-0.191864013671875,0.9643402099609375,-0.155670166015625
20.62,-0.000952080066781491,0.0007166566210798919,0.011199924163520336,-0.1931915283203125,0.962432861328125,-0.1526336669921875
20.64,-0.013258813880383968,-0.0010130665032193065,0.009732522070407867,-0.194976806640625,0.9644927978515625,-0.1496124267578125
20.66,-0.01040576957166195,-0.008594819344580173,0.015305186621844769,-0.2004547119140625,0.9627227783203125,-0.146728515625
20.68,-0.007874168455600739,-0.01155945099890232,0.006305566523224115,-0.204010009765625,0.960723876953125,-0.1498565673828125
20.7,-0.004195810295641422,-0.006175337824970484,0.002290584845468402,-0.2074432373046875,0.962158203125,-0.1549072265625
20.72,0.002950516063719988,-0.008434764109551907,-0.006800914648920298,-0.206695556640625,0.959197998046875,-0.157958984375
20.74,0.013421532697975636,-0.0055002267472445965,-0.00872345082461834,-0.2054901123046875,0.9600677490234375,-0.158782958984375
20.76,0.01878460682928562,-0.0012231898726895452,-0.012399145402014256,-0.201873779296875,0.9609527587890625,-0.158477783203125
20.78,0.00908510759472847,0.018753714859485626,-0.009642506949603558,-0.198974609375,0.96356201171875,-0.1558380126953125
20.8,-0.01444285549223423,0.007918110117316246,-0.0037859496660530567,-0.1907806396484375,0.96307373046875,-0.1534881591796875
20.82,-0.017344901338219643,0.0023209447972476482,0.007802529260516167,-0.1882781982421875,0.96270751953125,-0.14910888671875
20.84,0.001157143502496183,-0.01607270911335945,0.009265669621527195,-0.1875152587890625,0.966949462890625,-0.1552276611328125
20.86,0.009733853861689568,-0.04199938103556633,0.011391671374440193,-0.19195556640625,0.9643402099609375,-0.15655517578125
20.88,0.0037233654875308275,-0.03429459035396576,0.007898403331637383,-0.19647216796875,0.9627227783203125,-0.1572113037109375
20.9,-0.006234992761164904,-0.015469769947230816,0.0015867113834246993,-0.1983795166015625,0.961456298828125,-0.157501220703125
20.92,-0.004150536376982927,-0.004224572330713272,-0.00803129468113184,-0.203094482421875,0.9612884521484375,-0.156768798828125
20.94,0.010922688990831375,0.015279886312782764,-0.0182876605540514,-0.2053375244140625,0.9609527587890625,-0.1551361083984375
20.96,0.012889700010418892,0.03304050862789154,-0.024273913353681564,-0.2028350830078125,0.964935302734375,-0.157623291015625
20.98,-0.0007712514488957822,0.03952024504542351,-0.018276475369930267,-0.1954345703125,0.961822509765625,-0.1534423828125
21,-0.0067846691235899925,0.025556758046150208,-0.002734001260250807,-0.1868438720703125,0.96380615234375,-0.1501007080078125
21.02,-0.0018053569365292788,-0.007443268783390522,0.011494203470647335,-0.1833038330078125,0.9657440185546875,-0.149871826171875
21.04,0.005658418405801058,-0.04325772449374199,0.018560102209448814,-0.18511962890625,0.9666900634765625,-0.14813232421875
21.06,0.0030059099663048983,-0.04934864118695259,0.020604344084858894,-0.1917266845703125,0.9660797119140625,-0.1498565673828125
21.08,-0.005376389715820551,-0.014377341605722904,0.013620204292237759,-0.1968536376953125,0.963226318359375,-0.1520233154296875
21.1,-0.015364308841526508,0.02117452770471573,0.005563876125961542,-0.2026519775390625,0.9608306884765625,-0.153167724609375
21.12,-0.010274475440382957,0.03255261853337288,-0.0031973912846297026,-0.2036590576171875,0.95965576171875,-0.1541595458984375
21.14,0.002813629573211074,0.023620640859007835,-0.006442452780902386,-0.204925537109375,0.9608306884765625,-0.1583251953125
21.16,0.014550180174410343,0.00953997578471899,-0.0034059167373925447,-0.1993560791015625,0.961212158203125,-0.1585540771484375
21.18,0.014123808592557907,0.0024889903143048286,0.0005808354471810162,-0.196044921875,0.960845947265625,-0.15771484375
21.2,0.010732272639870644,-0.00022556974727194756,0.002231196267530322,-0.1927947998046875,0.9625701904296875,-0.1555938720703125
21.22,0.013167999684810638,-0.020207267254590988,0.006636863574385643,-0.191009521484375,0.9636383056640625,-0.152801513671875
21.24,0.015991749241948128,-0.024942368268966675,0.008679241873323917,-0.19659423828125,0.9633941650390625,-0.1461944580078125
21.26,0.0029736857395619154,-0.010542389005422592,0.008126902393996716,-0.1975860595703125,0.9639892578125,-0.144256591796875
21.28,-0.015808790922164917,0.013715279288589954,0.003940945956856012,-0.2017059326171875,0.9609527587890625,-0.142364501953125
21.3,-0.023605726659297943,0.028720861300826073,-0.0035321505274623632,-0.2033843994140625,0.9630279541015625,-0.1430206298828125
21.32,-0.017351826652884483,0.02883138135075569,-0.00643712654709816,-0.2040252685546875,0.9615325927734375,-0.149749755859375
21.34,-0.0022453111596405506,0.02101127617061138,-0.008097074925899506,-0.2034759521484375,0.960968017578125,-0.1526947021484375
21.36,0.008524511940777302,0.016577644273638725,-0.0070456587709486485,-0.2014923095703125,0.9618988037109375,-0.15655517578125
21.38,0.010388991795480251,0.011169031262397766,-0.0020242687314748764,-0.1983642578125,0.9633941650390625,-0.158660888671875
21.4,0.0007384945638477802,0.005846437532454729,-0.0022985744290053844,-0.195037841796875,0.9614105224609375,-0.157867431640625
21.42,-0.003421362955123186,0.015569105744361877,0.002778209513053298,-0.1916961669921875,0.9622039794921875,-0.1544036865234375
21.44,0.0005363606614992023,0.015245531685650349,0.006822219584137201,-0.1919708251953125,0.962127685546875,-0.1549072265625
21.46,0.008162056095898151,0.0028695559594780207,0.009952233172953129,-0.192352294921875,0.9646148681640625,-0.155609130859375
21.48,0.011487279087305069,-0.008302670903503895,0.014221812598407269,-0.1923675537109375,0.9617156982421875,-0.156951904296875
21.5,0.010313889943063259,-0.019361181184649467,0.016383234411478043,-0.194580078125,0.96234130859375,-0.1528778076171875
21.52,0.0073428675532341,-0.010774617083370686,0.017362212762236595,-0.1992034912109375,0.9637298583984375,-0.150909423828125
21.54,0.00364746549166739,-0.006709834095090628,0.011022024787962437,-0.2025909423828125,0.9627685546875,-0.1497344970703125
21.56,0.004604339133948088,-0.0017664746847003698,0.010432134382426739,-0.2058868408203125,0.959625244140625,-0.1502532958984375
21.58,0.01091842819005251,0.006136988289654255,-0.0007499461644329131,-0.2052459716796875,0.9618072509765625,-0.1512603759765625
21.6,0.006746852304786444,0.01852228492498398,-0.004260525107383728,-0.2066650390625,0.9613800048828125,-0.1512908935546875
21.62,0.0014423680258914828,0.023067768663167953,-0.00595456175506115,-0.20001220703125,0.96356201171875,-0.1539764404296875
21.64,-0.0008402272942475975,0.0062818643637001514,0.0010554107138887048,-0.198211669921875,0.961639404296875,-0.15203857421875
21.66,0.004923119675368071,-0.008314655162394047,0.004779042676091194,-0.1979827880859375,0.9612274169921875,-0.1513214111328125
21.68,0.005469067487865686,0.008301605470478535,0.00034115093876607716,-0.198699951171875,0.963592529296875,-0.1519622802734375
21.7,-0.013019661419093609,0.054850999265909195,-0.005913815461099148,-0.1985015869140625,0.967193603515625,-0.15203857421875
21.72,-0.029981600120663643,0.07724898308515549,-0.003176884725689888,-0.19317626953125,0.96136474609375,-0.156036376953125
21.74,-0.020953752100467682,0.0668322965502739,-0.001731853699311614,-0.187469482421875,0.9598388671875,-0.160736083984375
21.76,0.006847519893199205,0.025769811123609543,0.01215440034866333,-0.18719482421875,0.963287353515625,-0.164703369140625
21.78,0.029859095811843872,-0.04237408936023712,0.02527845837175846,-0.1865692138671875,0.962127685546875,-0.16668701171875
21.8,0.03255874291062355,-0.05308505520224571,0.02726384438574314,-0.1892242431640625,0.9642791748046875,-0.161529541015625
21.82,0.016344618052244186,-0.01284522470086813,0.01725967973470688,-0.1922149658203125,0.9622650146484375,-0.15899658203125
21.84,-0.004593953024595976,0.029138177633285522,0.016100673004984856,-0.1959991455078125,0.96240234375,-0.1549224853515625
21.86,-0.01008059736341238,0.015264973044395447,0.014074806123971939,-0.1974029541015625,0.960662841796875,-0.149871826171875
21.88,-0.001651159836910665,0.003780623432248831,0.01347373053431511,-0.203369140625,0.9607391357421875,-0.1482086181640625
21.9,0.004638161510229111,0.00980309583246708,0.0049010151997208595,-0.20068359375,0.964569091796875,-0.15509033203125
21.92,-0.005183043889701366,0.034992072731256485,0.005441104527562857,-0.201934814453125,0.965545654296875,-0.15667724609375
21.94,-0.008153000846505165,0.03917856141924858,0.006107693538069725,-0.1942596435546875,0.9564666748046875,-0.1579132080078125
21.96,0.002463690238073468,0.010249707847833633,0.009910687804222107,-0.1915130615234375,0.959136962890625,-0.1595611572265625
21.98,0.01985999196767807,-0.005932191386818886,0.017016800120472908,-0.1931610107421875,0.9677276611328125,-0.16064453125
22,0.018039986491203308,-0.023077622056007385,0.01564127765595913,-0.189361572265625,0.961212158203125,-0.1601715087890625
22.02,0.0124233802780509,-0.004369714763015509,0.016641294583678246,-0.1924285888671875,0.9621124267578125,-0.1576995849609375
22.04,0.005118329077959061,-0.0028306739404797554,0.012543221935629845,-0.1932220458984375,0.9638519287109375,-0.156036376953125
22.06,-0.0005898901727050543,-0.0038778288289904594,0.014366422779858112,-0.19805908203125,0.963165283203125,-0.150634765625
22.08,-0.00469568558037281,0.012221778742969036,0.005541239399462938,-0.19915771484375,0.9633941650390625,-0.1476593017578125
22.1,-0.012850018218159676,0.02984604611992836,0.001119060325436294,-0.2006988525390625,0.9598541259765625,-0.15020751953125
22.12,-0.01876569725573063,0.03441709652543068,0.0026636936236172915,-0.1978302001953125,0.9599456787109375,-0.15478515625
22.14,-0.0021137509029358625,0.01762719638645649,0.0025414545089006424,-0.1942596435546875,0.967071533203125,-0.157501220703125
22.16,0.013403156772255898,0.013757357373833656,-0.000055393749789800495,-0.1922607421875,0.96142578125,-0.1604156494140625
22.18,0.012892362661659718,0.018511366099119186,0.004893025849014521,-0.1883697509765625,0.963104248046875,-0.1625823974609375
22.2,0.011413775384426117,0.0008679241873323917,0.01022520661354065,-0.1854705810546875,0.9635162353515625,-0.1630859375
22.22,0.013195430859923363,-0.013273993507027626,0.015574964694678783,-0.182525634765625,0.962982177734375,-0.1565399169921875
22.24,0.013711817562580109,-0.017043432220816612,0.01593635603785515,-0.1868438720703125,0.9655303955078125,-0.1536102294921875
22.26,0.003909253980964422,-0.01570572517812252,0.01830017752945423,-0.18927001953125,0.9632110595703125,-0.1512908935546875
22.28,-0.01218609232455492,0.009476060047745705,0.01823519729077816,-0.1929931640625,0.964874267578125,-0.1497955322265625
22.3,-0.017000287771224976,0.029809560626745224,0.00166580721270293,-0.1949615478515625,0.9609832763671875,-0.1518707275390625
22.32,-0.01239009015262127,0.04489397257566452,0.0019952403381466866,-0.1967010498046875,0.9622344970703125,-0.1564178466796875
22.34,-0.0024474449455738068,0.035056520253419876,0.0004905542591586709,-0.1922454833984375,0.96527099609375,-0.1623382568359375
22.36,0.004522313829511404,0.02839915081858635,0.0030210898257791996,-0.18975830078125,0.9610137939453125,-0.1624603271484375
22.38,0.008300806395709515,0.025138642638921738,0.006572947837412357,-0.1837310791015625,0.9618377685546875,-0.1625518798828125
22.4,0.01458986196666956,-0.0005925533478148282,0.011457984335720539,-0.185272216796875,0.9658050537109375,-0.1650390625
22.42,0.02292635478079319,-0.0356389544904232,0.01356507744640112,-0.185882568359375,0.96551513671875,-0.1580810546875
22.44,0.02520362287759781,-0.037457093596458435,0.016645822674036026,-0.190399169921875,0.9637603759765625,-0.1515045166015625
22.46,0.007151918951421976,-0.011813782155513763,0.005942311137914658,-0.193603515625,0.9646148681640625,-0.1500244140625
22.48,-0.007536745630204678,0.050226420164108276,-0.0036394759081304073,-0.19873046875,0.9637908935546875,-0.1485748291015625
22.5,-0.020603811368346214,0.07009653002023697,-0.003197657410055399,-0.186676025390625,0.9589691162109375,-0.1522369384765625
22.52,-0.02113058604300022,0.05861830711364746,0.0033894050866365433,-0.186676025390625,0.9589691162109375,-0.1522369384765625
22.54,-0.010054764337837696,0.04586708918213844,0.008155398070812225,-0.18408203125,0.9649200439453125,-0.15570068359375
22.56,-0.0022599585354328156,0.010424943640828133,0.012852948158979416,-0.178924560546875,0.967437744140625,-0.16607666015625
22.58,0.012075304985046387,-0.02268240973353386,0.017169931903481483,-0.1815643310546875,0.9656982421875,-0.1656036376953125
22.6,0.03365783020853996,-0.03272918611764908,0.01950445957481861,-0.18182373046875,0.9665679931640625,-0.167266845703125
22.62,0.03404664993286133,-0.03889333829283714,0.021216604858636856,-0.185943603515625,0.9669036865234375,-0.16253662109375
22.64,0.010551444254815578,-0.029518477618694305,0.01666259951889515,-0.19146728515625,0.9624176025390625,-0.1534881591796875
22.66,-0.004346811678260565,0.008358065038919449,0.009814813733100891,-0.193817138671875,0.95928955078125,-0.14794921875
22.68,-0.01335974782705307,0.042761579155921936,0.0005885586142539978,-0.19842529296875,0.9689788818359375,-0.15081787109375
22.7,-0.015720373019576073,0.04037325456738472,-0.0051878378726542,-0.1963348388671875,0.9614715576171875,-0.153228759765625
22.72,-0.0051894355565309525,0.03837428614497185,-0.0038213697262108326,-0.1923675537109375,0.95977783203125,-0.156646728515625
22.74,0.012708337977528572,0.02563665434718132,0.0007182545377872884,-0.1873321533203125,0.9673919677734375,-0.16259765625
22.76,0.014132330194115639,-0.004176635295152664,0.006985737942159176,-0.1809844970703125,0.96148681640625,-0.1658935546875
22.78,0.01654568687081337,-0.003034672001376748,0.015679361298680305,-0.17974853515625,0.9629669189453125,-0.1612396240234375
22.8,0.010991398245096207,-0.011436413042247295,0.018489262089133263,-0.1776275634765625,0.9669952392578125,-0.1622161865234375
22.82,0.00726483715698123,-0.016869528219103813,0.025614017620682716,-0.17938232421875,0.9648895263671875,-0.1584625244140625
22.84,0.007164702285081148,-0.005137504078447819,0.021502628922462463,-0.1806793212890625,0.96533203125,-0.1579132080078125
22.86,0.005078115500509739,-0.003064233111217618,0.019398199394345284,-0.1857452392578125,0.9647979736328125,-0.15936279296875
22.88,0.00803182739764452,-0.005538043566048145,0.014405304566025734,-0.188507080078125,0.96563720703125,-0.1611785888671875
22.9,0.004144411068409681,0.0009771138429641724,0.010725348256528378,-0.1912994384765625,0.9621429443359375,-0.1599273681640625
22.92,0.0012381036067381501,0.024388164281845093,0.004277302883565426,-0.191619873046875,0.962127685546875,-0.15716552734375
22.94,-0.0029856697656214237,0.04459303244948387,0.002344646956771612,-0.1890716552734375,0.9622955322265625,-0.1608428955078125
22.96,-0.0036786242853850126,0.04631876200437546,-0.00361763802357018,-0.1865386962890625,0.962921142578125,-0.163360595703125
22.98,0.0051894355565309525,0.029756031930446625,-0.0012476909905672073,-0.18035888671875,0.9652862548828125,-0.166229248046875
23,0.01642105169594288,0.005120459944009781,0.009886985644698143,-0.177520751953125,0.966796875,-0.1653289794921875
23.02,0.019532421603798866,-0.013998639769852161,0.017726533114910126,-0.1745147705078125,0.9657440185546875,-0.1605987548828125
23.04,0.006855242885649204,0.0012125372886657715,0.01785995624959469,-0.1756134033203125,0.966827392578125,-0.157562255859375
23.06,-0.004141747951507568,0.02564091421663761,0.018635470420122147,-0.1780548095703125,0.966033935546875,-0.1567840576171875
23.08,-0.013373062945902348,0.02947746403515339,0.017794443294405937,-0.1775665283203125,0.96490478515625,-0.158111572265625
23.1,-0.000922519015148282,0.029107285663485527,0.015201323665678501,-0.180328369140625,0.963897705078125,-0.1591644287109375
23.12,0.0007571366732008755,0.015093198977410793,0.015966448932886124,-0.183135986328125,0.9669342041015625,-0.162322998046875
23.14,-0.0022514364682137966,0.007697334513068199,0.014711834490299225,-0.181121826171875,0.962615966796875,-0.1614990234375
23.16,-0.003483148291707039,0.01942775957286358,0.01239435188472271,-0.181610107421875,0.962310791015625,-0.16094970703125
23.18,0.00039760995423421264,0.015336878597736359,0.012823120690882206,-0.18389892578125,0.9659881591796875,-0.1612548828125
23.2,0.006366286426782608,0.011009241454303265,0.0099636847153306,-0.18792724609375,0.9642333984375,-0.1611785888671875
23.22,0.004218447022140026,0.015266571193933487,0.009021990932524204,-0.18603515625,0.96392822265625,-0.161041259765625
23.24,0.0034519892651587725,0.02087572030723095,0.0032802154310047626,-0.185333251953125,0.960540771484375,-0.16143798828125
23.26,0.0032527849543839693,0.02671496756374836,0.004221909213811159,-0.181243896484375,0.9654693603515625,-0.1617584228515625
23.28,0.004724713973701,0.00498224189504981,0.00800146721303463,-0.1794586181640625,0.9640045166015625,-0.1616058349609375
23.3,0.013143498450517654,-0.0011653993278741837,0.010436395183205605,-0.178924560546875,0.9638824462890625,-0.1590576171875
23.32,0.006588127929717302,0.016809606924653053,0.007421164773404598,-0.1795196533203125,0.968475341796875,-0.1607513427734375
23.34,-0.006479737348854542,0.024275777861475945,0.011832957156002522,-0.1775054931640625,0.966522216796875,-0.1619873046875
23.36,-0.008015049621462822,0.026199646294116974,0.010998322628438473,-0.17742919921875,0.962554931640625,-0.15966796875
23.38,0.003946538548916578,0.01829671487212181,0.014089453965425491,-0.177032470703125,0.9651641845703125,-0.16278076171875
23.4,0.010496582835912704,-0.005820072256028652,0.014940599910914898,-0.1783599853515625,0.9664306640625,-0.164306640625
23.42,0.006880276836454868,-0.0006870955694466829,0.010220945812761784,-0.1804046630859375,0.96588134765625,-0.16357421875
23.44,0.0013526194961741567,0.019870644435286522,0.007650729268789291,-0.181182861328125,0.9634552001953125,-0.161956787109375
23.46,-0.0019864519126713276,0.025796709582209587,0.004489024169743061,-0.1825408935546875,0.9640045166015625,-0.1639862060546875
23.48,0.0014495585346594453,0.026436667889356613,0.005894108209758997,-0.18170166015625,0.9630584716796875,-0.164306640625
23.5,0.007620635442435741,0.018306303769350052,0.0029233519453555346,-0.1802215576171875,0.965728759765625,-0.1666107177734375
23.52,0.01074132788926363,0.0070762853138148785,0.0030623688362538815,-0.177642822265625,0.963287353515625,-0.1656646728515625
23.54,0.014591192826628685,0.014281467534601688,0.006686132401227951,-0.173828125,0.9642181396484375,-0.1628570556640625
23.56,0.0120087256655097,0.03194967657327652,0.011860121041536331,-0.17498779296875,0.9664459228515625,-0.16412353515625
23.58,-0.003653058083727956,0.03208150342106819,0.009100553579628468,-0.171356201171875,0.96856689453125,-0.1630706787109375
23.6,-0.00800306536257267,0.034085799008607864,0.014277473092079163,-0.171173095703125,0.963226318359375,-0.16339111328125
23.62,0.0004652542411349714,0.015450062230229378,0.017620272934436798,-0.1691741943359375,0.9654541015625,-0.1653900146484375
23.64,0.011225756257772446,-0.022644592449069023,0.021694110706448555,-0.1702728271484375,0.9676971435546875,-0.1648101806640625
23.66,0.016168050467967987,-0.020300477743148804,0.020022977143526077,-0.1739654541015625,0.9683380126953125,-0.1662750244140625
23.68,0.005524727515876293,0.008954612538218498,0.010299243032932281,-0.173828125,0.969329833984375,-0.1646575927734375
23.7,-0.00951201282441616,0.05078088864684105,0.002448510378599167,-0.17413330078125,0.9645538330078125,-0.163482666015625
23.72,-0.013157347217202187,0.05782388523221016,0.0032487902790308,-0.174407958984375,0.964019775390625,-0.1644134521484375
23.74,-0.0016538230702280998,0.03268790617585182,0.007381483446806669,-0.172882080078125,0.966644287109375,-0.1655731201171875
23.76,0.00749093946069479,0.004722583573311567,0.011378888040781021,-0.1727447509765625,0.9662017822265625,-0.163238525390625
23.78,0.0102566322311759,0.00983398873358965,0.015730759128928185,-0.17169189453125,0.9635009765625,-0.162506103515625
23.8,-0.0010077401529997587,0.02749527432024479,0.01565432734787464,-0.1703338623046875,0.965301513671875,-0.1668548583984375
23.82,-0.007799599785357714,0.03851836547255516,0.01495311688631773,-0.1706085205078125,0.96600341796875,-0.1676177978515625
23.84,0.002954244613647461,0.024213461205363274,0.01335655152797699,-0.1677093505859375,0.9660797119140625,-0.1691741943359375
23.86,0.01629827916622162,-0.006511961575597525,0.009270464070141315,-0.1694793701171875,0.9650726318359375,-0.1688995361328125
23.88,0.027222033590078354,-0.025550633668899536,0.012552277185022831,-0.1717529296875,0.9671173095703125,-0.166259765625
23.9,0.017885522916913033,-0.022950323298573494,0.010645986534655094,-0.1738433837890625,0.968658447265625,-0.16265869140625
23.92,-0.004416053649038076,0.004774248693138361,0.0032828785479068756,-0.1739501953125,0.96331787109375,-0.1559600830078125
23.94,-0.018681276589632034,0.046968840062618256,-0.0012389025650918484,-0.177093505859375,0.9671630859375,-0.1562347412109375
23.96,-0.025714950636029243,0.061716094613075256,-0.003234142903238535,-0.1748046875,0.96771240234375,-0.160736083984375
23.98,-0.020807810127735138,0.05616020783782005,-0.0051811798475682735,-0.1733856201171875,0.965179443359375,-0.1618804931640625
24,-0.009666209109127522,0.03928988054394722,-0.000222373942960985,-0.1717681884765625,0.9647064208984375,-0.1673583984375
24.02,-0.0011877698125317693,0.0106505136936903,0.006658435333520174,-0.1693572998046875,0.9665985107421875,-0.170684814453125
24.04,0.005334311630576849,-0.019481023773550987,0.00836978293955326,-0.167633056640625,0.96685791015625,-0.1704254150390625
24.06,0.0152588477358222,-0.019510317593812943,0.008500011637806892,-0.1698760986328125,0.96392822265625,-0.1689910888671875
24.08,0.014859640039503574,-0.009185242466628551,0.00256355875171721,-0.1728057861328125,0.96636962890625,-0.169097900390625
24.1,0.004488225560635328,0.004878112114965916,-0.0038245655596256256,-0.176055908203125,0.9668121337890625,-0.1663360595703125
24.12,-0.006765494588762522,0.03175553306937218,-0.009968744590878487,-0.176177978515625,0.9634246826171875,-0.16058349609375
24.14,-0.017430922016501427,0.030980819836258888,-0.012859339825809002,-0.1739959716796875,0.9669189453125,-0.1616973876953125
24.16,-0.018078070133924484,0.04019349068403244,-0.012075038626790047,-0.174896240234375,0.9690093994140625,-0.16107177734375
24.18,-0.015850868076086044,0.03681261092424393,-0.012170912697911263,-0.17010498046875,0.967681884765625,-0.165496826171875
24.2,-0.006089051254093647,0.0008170577930286527,-0.005403287708759308,-0.167572021484375,0.96649169921875,-0.1698455810546875
24.22,0.00490208063274622,-0.03990773484110832,-0.0005925533478148282,-0.167449951171875,0.9666290283203125,-0.1676788330078125
24.24,0.017353158444166183,-0.04223933070898056,0.00034434671397320926,-0.1726837158203125,0.9662017822265625,-0.1666259765625
24.26,0.006773750297725201,-0.016530506312847137,-0.011832424439489841,-0.177886962890625,0.9682159423828125,-0.1657562255859375
24.28,-0.0071005201898515224,0.016712401062250137,-0.01281379908323288,-0.179931640625,0.962158203125,-0.162811279296875
24.3,-0.009943177923560143,0.03789997845888138,-0.021395303308963776,-0.176727294921875,0.9632720947265625,-0.1620025634765625
24.32,-0.007934888824820518,0.026381006464362144,-0.017731592059135437,-0.175689697265625,0.96563720703125,-0.1640625
24.34,-0.0073412698693573475,0.006397179327905178,-0.01261166576296091,-0.168914794921875,0.96881103515625,-0.1654205322265625
24.36,-0.009693107567727566,-0.022364694625139236,-0.007809720002114773,-0.1667022705078125,0.967254638671875,-0.1652984619140625
24.38,0.0017451694002375007,-0.03345382958650589,-0.002186188939958811,-0.1676483154296875,0.9646759033203125,-0.1657257080078125
24.4,0.01667059026658535,-0.054242465645074844,-0.005449892953038216,-0.1735076904296875,0.967987060546875,-0.1664581298828125
24.42,0.012265188619494438,-0.04499810189008713,-0.004225637763738632,-0.178985595703125,0.9667510986328125,-0.1633148193359375
24.44,-0.010688597336411476,0.011959990486502647,-0.015482819639146328,-0.17864990234375,0.9636688232421875,-0.161041259765625
24.46,-0.02767051011323929,0.03870531916618347,-0.022941002622246742,-0.1796875,0.9656829833984375,-0.1634368896484375
24.48,-0.013470535166561604,0.01907435804605484,-0.022586002945899963,-0.1783447265625,0.96295166015625,-0.1653900146484375
24.5,0.018574217334389687,-0.025610288605093956,-0.018797656521201134,-0.176177978515625,0.9671783447265625,-0.1681976318359375
24.52,0.03074699267745018,-0.05029486119747162,-0.010204434394836426,-0.174957275390625,0.9697723388671875,-0.1680145263671875
24.54,0.01464925054460764,-0.02532479725778103,-0.010889931581914425,-0.1728973388671875,0.96160888671875,-0.1646270751953125
24.56,-0.006388923618942499,0.005061604082584381,-0.009832124225795269,-0.1697845458984375,0.9653472900390625,-0.163848876953125
24.58,-0.007249923422932625,0.00013555490295402706,-0.004738562274724245,-0.1686248779296875,0.9658966064453125,-0.163330078125
24.6,-0.0005382248782552779,-0.01920218952000141,0.0030503845773637295,-0.1733551025390625,0.965362548828125,-0.1591339111328125
24.62,0.010278203524649143,-0.03339124470949173,0.002270344877615571,-0.1733856201171875,0.9669342041015625,-0.163177490234375
24.64,0.005136172287166119,-0.03081304021179676,-0.00043782367720268667,-0.1766204833984375,0.96234130859375,-0.164031982421875
24.66,-0.0033742249943315983,-0.013775733299553394,-0.0068267472088336945,-0.1805267333984375,0.96405029296875,-0.1643829345703125
24.68,-0.010905378498136997,0.0033563817851245403,-0.009370865300297737,-0.1819610595703125,0.9673004150390625,-0.1634979248046875
24.7,-0.005425924435257912,-0.0007550061563961208,-0.0116750318557024,-0.1827239990234375,0.9629974365234375,-0.162811279296875
24.72,0.003549993736669421,-0.015741944313049316,-0.011769041419029236,-0.1845550537109375,0.9642486572265625,-0.1627197265625
24.74,0.006188920233398676,-0.01179061271250248,-0.011722436174750328,-0.1865997314453125,0.96441650390625,-0.1609039306640625
24.76,-0.006469883490353823,0.0158868208527565,-0.014871091581881046,-0.184234619140625,0.962646484375,-0.15960693359375
24.78,-0.01751774176955223,0.03413373604416847,-0.01684156432747841,-0.1793212890625,0.96392822265625,-0.163421630859375
24.8,-0.007841411046683788,0.011293933726847172,-0.01516084372997284,-0.1780242919921875,0.962127685546875,-0.1643829345703125
24.82,0.011051053181290627,-0.03700968250632286,-0.007715710438787937,-0.1768341064453125,0.9669189453125,-0.1645050048828125
24.84,0.016578443348407745,-0.06620138883590698,-0.0014407701091840863,-0.1775054931640625,0.9674530029296875,-0.161224365234375
24.86,0.009129582904279232,-0.037693049758672714,-0.004065581597387791,-0.1825408935546875,0.9644775390625,-0.1583099365234375
24.88,-0.010526410304009914,0.00860227644443512,-0.014830878004431725,-0.1866455078125,0.9636077880859375,-0.1588897705078125
24.9,-0.010839864611625671,0.04706897586584091,-0.021509286016225815,-0.1858673095703125,0.962127685546875,-0.1623077392578125
24.92,-0.0001930791768245399,0.05175560712814331,-0.016702814027667046,-0.1836700439453125,0.9623565673828125,-0.165252685546875
24.94,0.010242783464491367,0.003762513864785433,-0.005053347907960415,-0.178497314453125,0.963897705078125,-0.164886474609375
24.96,0.016651947051286697,-0.04073038697242737,0.006342850625514984,-0.1749114990234375,0.964569091796875,-0.1615447998046875
24.98,0.014793593436479568,-0.055640626698732376,0.015126221813261509,-0.1760101318359375,0.966583251953125,-0.1595916748046875
25,0.00043276368523947895,-0.04692542925477028,0.010885138064622879,-0.1783599853515625,0.96563720703125,-0.15802001953125
25.02,-0.0023792681749910116,-0.009224656969308853,0.0006053365068510175,-0.1871337890625,0.9638824462890625,-0.158355712890625
25.04,-0.0013907026732340455,0.020136427134275436,-0.010972223244607449,-0.1884613037109375,0.9659423828125,-0.1622314453125
25.06,-0.0018098842119798064,0.026323748752474785,-0.012152536772191525,-0.1887054443359375,0.96295166015625,-0.1607666015625
25.08,-0.0005635248962789774,0.020505275577306747,-0.010892861522734165,-0.1849365234375,0.960418701171875,-0.1596527099609375
25.1,-0.0012434299569576979,0.007133809383958578,-0.0036706349346786737,-0.1810455322265625,0.9631805419921875,-0.160675048828125
25.12,0.004962800536304712,-0.01902296021580696,0.005659749731421471,-0.1793365478515625,0.9673309326171875,-0.16131591796875
25.14,0.010920025408267975,-0.014934208244085312,0.005319930613040924,-0.177978515625,0.965576171875,-0.1617431640625
25.16,0.010087521746754646,0.0015664712991565466,0.0025502429343760014,-0.1777496337890625,0.9633636474609375,-0.1619873046875
25.18,0.008526110090315342,0.007607852108776569,0.0032519858796149492,-0.17877197265625,0.96307373046875,-0.1638336181640625
25.2,0.006940197665244341,-0.002189384773373604,0.0032402679789811373,-0.178619384765625,0.963958740234375,-0.161834716796875
25.22,0.0012777847005054355,0.009007076732814312,0.005024319514632225,-0.1829833984375,0.9658966064453125,-0.158050537109375
25.24,-0.016583504155278206,0.006672283634543419,0.009285377338528633,-0.1812896728515625,0.963775634765625,-0.1562347412109375
25.26,-0.023565514013171196,0.024290159344673157,0.0009534116834402084,-0.1826324462890625,0.9624786376953125,-0.156463623046875
25.28,-0.010326140560209751,0.0460796095430851,0.001365668955259025,-0.1824493408203125,0.966094970703125,-0.163360595703125
25.3,-0.0024857944808900356,0.04421406611800194,-0.003129746997728944,-0.17877197265625,0.96234130859375,-0.1699981689453125
25.32,-0.00045593318645842373,0.03701714053750038,0.0035401401109993458,-0.1779327392578125,0.9657135009765625,-0.171875
25.34,0.005912217777222395,0.010178601369261742,0.00965928565710783,-0.1696624755859375,0.9650421142578125,-0.1713104248046875
25.36,0.009131712839007378,-0.023743944242596626,0.01398718822747469,-0.1699981689453125,0.9659576416015625,-0.166168212890625
25.38,0.012984241358935833,-0.03498115390539169,0.018002701923251152,-0.1768646240234375,0.9660491943359375,-0.16278076171875
25.4,0.0010993528412654996,-0.009489375166594982,0.014994928613305092,-0.182525634765625,0.967987060546875,-0.1568756103515625
25.42,-0.027601800858974457,0.03829332813620567,0.004718588665127754,-0.1851654052734375,0.96392822265625,-0.15545654296875
25.44,-0.039800677448511124,0.07704684883356094,-0.0027049726340919733,-0.1886444091796875,0.962249755859375,-0.1574249267578125
25.46,-0.024442492052912712,0.06788317859172821,-0.01145851705223322,-0.1873931884765625,0.9602813720703125,-0.1652679443359375
25.48,0.005782788153737783,0.031247934326529503,-0.00845740083605051,-0.186492919921875,0.9613037109375,-0.169952392578125
25.5,0.020684504881501198,-0.00242107966914773,-0.0020564929582178593,-0.182830810546875,0.9677734375,-0.170318603515625
25.52,0.016276707872748375,-0.006102633662521839,0.002040247665718198,-0.1799468994140625,0.965057373046875,-0.1683349609375
25.54,-0.0008620652370154858,0.010425209999084473,0.003674097126349807,-0.174346923828125,0.9659271240234375,-0.162200927734375
25.56,-0.01715102419257164,0.028852952644228935,0.0025278725661337376,-0.1769561767578125,0.9629058837890625,-0.15850830078125
25.58,-0.020855747163295746,0.027053188532590866,-0.0005289037944748998,-0.1781005859375,0.966552734375,-0.157684326171875
25.6,-0.019765449687838554,0.03194994479417801,0.0044200485572218895,-0.181732177734375,0.9662933349609375,-0.15728759765625
25.62,-0.022611835971474648,0.02748834900557995,0.006085855886340141,-0.179718017578125,0.9636993408203125,-0.1598052978515625
25.64,-0.01756674237549305,0.013016199693083763,0.011632687412202358,-0.181732177734375,0.96136474609375,-0.16192626953125
25.66,-0.00896499864757061,0.009554089978337288,0.005084240809082985,-0.1844482421875,0.964385986328125,-0.16510009765625
25.68,-0.0010074737947434187,0.0038107172586023808,0.005088767968118191,-0.18511962890625,0.962921142578125,-0.16815185546875
25.7,0.0037923413328826427,0.012500079348683357,0.0005874933558516204,-0.1847991943359375,0.9619598388671875,-0.169036865234375
25.72,0.00449727987870574,0.01648177206516266,-0.005270129535347223,-0.1830902099609375,0.965606689453125,-0.16644287109375
25.74,0.004530569538474083,-0.00040000680019147694,-0.0024173513520509005,-0.18243408203125,0.9625396728515625,-0.1621246337890625
25.76,0.0051686628721654415,-0.0015006912872195244,-0.0010657970560714602,-0.1821441650390625,0.964752197265625,-0.1593780517578125
25.78,-0.005886917468160391,0.018996328115463257,0.0027334685437381268,-0.18243408203125,0.9670562744140625,-0.1584014892578125
25.8,-0.023667512461543083,0.036969736218452454,-0.0011885687708854675,-0.1778717041015625,0.9622650146484375,-0.157562255859375
25.82,-0.024263527244329453,0.03497236594557762,0.0060118199326097965,-0.1778564453125,0.963287353515625,-0.1582489013671875
25.84,-0.004483964294195175,0.0010871023405343294,0.007910121232271194,-0.1766357421875,0.965576171875,-0.16497802734375
25.86,0.01269608736038208,-0.02225870080292225,0.009752496145665646,-0.180267333984375,0.9671173095703125,-0.1652069091796875
25.88,0.015323296189308167,-0.02581402100622654,0.010478739626705647,-0.1789703369140625,0.96588134765625,-0.166290283203125
25.9,0.0004868258547503501,-0.0013616742799058557,0.007219296880066395,-0.1815948486328125,0.963409423828125,-0.161865234375
25.92,-0.007869641296565533,0.006638728082180023,0.0037143107037991285,-0.183135986328125,0.965087890625,-0.1605072021484375
25.94,-0.005288771353662014,0.014879879541695118,0.0002817624481394887,-0.1826019287109375,0.9644622802734375,-0.15771484375
25.96,-0.0001227717293659225,0.013758156448602676,-0.0004165183927398175,-0.1833038330078125,0.964385986328125,-0.1592559814453125
25.98,-0.0037638454232364893,0.01906716823577881,-0.004260791465640068,-0.1795654296875,0.964080810546875,-0.1609649658203125
26,-0.00529676117002964,0.0182836651802063,0.0013646037550643086,-0.1768341064453125,0.96612548828125,-0.162567138671875
26.02,0.0000953411654336378,-0.0009957558941096067,0.002258893335238099,-0.173065185546875,0.967376708984375,-0.164276123046875
26.04,0.007006244268268347,-0.00811891257762909,0.007919708266854286,-0.1724395751953125,0.9656829833984375,-0.1626129150390625
26.06,0.0010077401529997587,-0.01359570398926735,0.007349791936576366,-0.172821044921875,0.964141845703125,-0.1627349853515625
26.08,0.00247594085521996,-0.009322129189968109,0.010359962470829487,-0.17718505859375,0.963043212890625,-0.160369873046875
26.1,0.0017981663113459945,-0.011446000076830387,0.007542870938777924,-0.1772308349609375,0.9661102294921875,-0.1595458984375
26.12,0.0006756439688615501,-0.0041582598350942135,0.0057191383093595505,-0.1804962158203125,0.9651336669921875,-0.15753173828125
26.14,-0.00020506340661086142,0.010483001358807087,-0.004911135416477919,-0.1815032958984375,0.962493896484375,-0.1591033935546875
26.16,-0.0023097596131265163,0.02129250578582287,-0.010514159686863422,-0.1815643310546875,0.967315673828125,-0.1624755859375
26.18,-0.0013142699608579278,0.016805611550807953,-0.004092479590326548,-0.17913818359375,0.96820068359375,-0.159088134765625
26.2,-0.0037673076149076223,0.0036756948102265596,-0.0025747441686689854,-0.17584228515625,0.9645233154296875,-0.1567535400390625
26.22,-0.00020932445477228612,0.00018189390539191663,0.0014210627414286137,-0.1737518310546875,0.9654083251953125,-0.1560211181640625
26.24,0.0007030745036900043,-0.003371029393747449,0.004304467234760523,-0.1728515625,0.9664459228515625,-0.1609649658203125
26.26,0.0022655511274933815,-0.008506136015057564,0.0031515848822891712,-0.1732177734375,0.968841552734375,-0.16143798828125
26.28,0.0014197311829775572,0.005795038305222988,0.003629888640716672,-0.1749420166015625,0.96685791015625,-0.160736083984375
26.3,-0.001487375469878316,0.01769004762172699,0.0005126585019752383,-0.1719512939453125,0.96490478515625,-0.1608123779296875
26.32,-0.004768922459334135,0.011355718597769737,-0.00039974047103896737,-0.1730804443359375,0.965545654296875,-0.161041259765625
26.34,0.0010365023044869304,-0.003418966196477413,0.0014700648607686162,-0.1735382080078125,0.967498779296875,-0.159088134765625
26.36,0.009965282864868641,-0.006067479960620403,0.007838482037186623,-0.1774749755859375,0.97039794921875,-0.159332275390625
26.38,-0.003858121344819665,-0.0031755531672388315,0.00376064982265234,-0.175445556640625,0.9640045166015625,-0.1600494384765625
26.4,-0.012805543839931488,0.016706807538866997,0.001793905277736485,-0.17767333984375,0.9671783447265625,-0.1559600830078125
26.42,-0.016565660014748573,0.01624794490635395,0.0002825613773893565,-0.178131103515625,0.9669342041015625,-0.1585235595703125
26.44,-0.004821919370442629,0.00999058224260807,-0.0010847054654732347,-0.17730712890625,0.9622039794921875,-0.1579742431640625
26.46,0.008082959800958633,0.014632205478847027,-0.0033044503070414066,-0.1781463623046875,0.9666595458984375,-0.162384033203125
26.48,-0.00169563468080014,0.009975402615964413,0.001067927572876215,-0.1772613525390625,0.965240478515625,-0.1631927490234375
26.5,-0.007017429452389479,-0.0042719766497612,0.00358860963024199,-0.17486572265625,0.9633026123046875,-0.1604766845703125
26.52,0.004768656101077795,-0.01181910838931799,0.0008444883860647678,-0.1776275634765625,0.965301513671875,-0.16143798828125
26.54,0.00974716991186142,-0.008440889418125153,-0.0014716627774760127,-0.1826324462890625,0.969329833984375,-0.1610870361328125
26.56,0.002776611829176545,0.01432487741112709,-0.004358529578894377,-0.1829376220703125,0.965179443359375,-0.159332275390625
26.58,-0.012941631488502026,0.03008253499865532,-0.002305764937773347,-0.177947998046875,0.96185302734375,-0.1580810546875
26.6,-0.011087272316217422,0.022405439987778664,-0.004745486658066511,-0.177093505859375,0.9634857177734375,-0.158203125
26.62,0.005616340320557356,0.009693640284240246,-0.002302835462614894,-0.1795806884765625,0.967803955078125,-0.15911865234375
26.64,-0.002264485927298665,-0.0041191112250089645,0.00007243797881528735,-0.1772308349609375,0.9649810791015625,-0.161346435546875
26.66,-0.0014884406700730324,0.004890362732112408,-0.00014567491598427296,-0.177032470703125,0.9654693603515625,-0.1588897705078125
26.68,0.0051843756809830666,0.008473645895719528,-0.002232261700555682,-0.177520751953125,0.9657440185546875,-0.1623077392578125
26.7,0.0006913566030561924,-0.009793242439627647,0.0012128035305067897,-0.1765594482421875,0.9646148681640625,-0.1602935791015625
26.72,0.00008442220860160887,-0.014093981124460697,0.0021584921050816774,-0.1764984130859375,0.9653167724609375,-0.155364990234375
26.74,-0.0021582257468253374,0.0006625944515690207,0.0022506373934447765,-0.179473876953125,0.9662933349609375,-0.1554412841796875
26.76,-0.001005343277938664,0.01683783531188965,-0.0037499971222132444,-0.180023193359375,0.965667724609375,-0.1574249267578125
26.78,-0.0005842975224368274,0.024086160585284233,-0.006472013890743256,-0.1797943115234375,0.9629364013671875,-0.1601715087890625
26.8,0.0013028184184804559,0.023992950096726418,-0.002764893928542733,-0.1801300048828125,0.964599609375,-0.161651611328125
26.82,0.0002812298189383,-0.0017614146927371621,-0.00077631144085899,-0.1765899658203125,0.96588134765625,-0.162841796875
26.84,0.008933573961257935,-0.028382904827594757,0.005056277383118868,-0.1762237548828125,0.9647674560546875,-0.1606292724609375
26.86,0.017777930945158005,-0.030122483149170876,0.0027177559677511454,-0.1771392822265625,0.966339111328125,-0.15948486328125
26.88,0.010922422632575035,-0.02033456601202488,0.0003451456723269075,-0.18231201171875,0.9669342041015625,-0.15869140625
26.9,-0.008507734164595604,0.0008679241873323917,-0.005872003734111786,-0.1808319091796875,0.961883544921875,-0.15325927734375
26.92,-0.009495234116911888,0.029474269598722458,-0.013079049997031689,-0.1849365234375,0.9617919921875,-0.15643310546875
26.94,-0.0029265477787703276,0.032218389213085175,-0.015199192799627781,-0.1822509765625,0.9674072265625,-0.161834716796875
26.96,0.0027534421533346176,0.014271614141762257,-0.014394652098417282,-0.17913818359375,0.9632415771484375,-0.1634368896484375
26.98,0.016047675162553787,0.020848290994763374,-0.00987207144498825,-0.1751861572265625,0.9664459228515625,-0.1650543212890625
27,0.005478388629853725,0.0004519384237937629,-0.002713228575885296,-0.171295166015625,0.9650726318359375,-0.1680145263671875
27.02,0.00031664984999224544,-0.03339124470949173,0.005570534151047468,-0.1678619384765625,0.96484375,-0.16058349609375
27.04,0.008128234185278416,-0.04790467396378517,0.008143147453665733,-0.17083740234375,0.9698486328125,-0.1574249267578125
27.06,0.011034275405108929,-0.022403309121727943,0.004063983913511038,-0.1787872314453125,0.9683990478515625,-0.157257080078125
27.08,-0.009224390611052513,0.023208117112517357,-0.004534298088401556,-0.1813201904296875,0.9656829833984375,-0.157745361328125
27.1,-0.03015097789466381,0.044084638357162476,-0.008381500840187073,-0.1808319091796875,0.9620208740234375,-0.15777587890625
27.12,-0.01483593787997961,0.030481476336717606,-0.009702960960566998,-0.1824951171875,0.9649200439453125,-0.160919189453125
27.14,0.011987953446805477,-0.004010720644146204,-0.0078046596609056,-0.18218994140625,0.9656524658203125,-0.1655120849609375
27.16,0.019360115751624107,-0.022972960025072098,-0.006046973634511232,-0.1805419921875,0.9646148681640625,-0.1669158935546875
27.18,0.012468920089304447,-0.004144677426666021,-0.007927431724965572,-0.181121826171875,0.96527099609375,-0.1652069091796875
27.2,-0.0010207896120846272,0.003689010627567768,-0.006567355245351791,-0.1751708984375,0.962921142578125,-0.16156005859375
27.22,-0.002144643571227789,-0.0016013587592169642,-0.0010335728293284774,-0.1785430908203125,0.962493896484375,-0.1568450927734375
27.24,0.0036887445021420717,0.0016215987270697951,-0.004936701618134975,-0.1818389892578125,0.9667816162109375,-0.154083251953125
27.26,-0.001806155894882977,0.030852986499667168,-0.008258462883532047,-0.183685302734375,0.96392822265625,-0.1586456298828125
27.28,-0.016892164945602417,0.035420842468738556,-0.00806245394051075,-0.1819610595703125,0.968109130859375,-0.162445068359375
27.3,-0.008638761937618256,0.013865748420357704,-0.005074120592325926,-0.178802490234375,0.960784912109375,-0.161590576171875
27.32,0.009791377931833267,-0.013073723763227463,-0.0021819279063493013,-0.1804656982421875,0.9646453857421875,-0.16265869140625
27.34,0.019514845684170723,-0.03904673457145691,0.0013965616235509515,-0.18182373046875,0.96405029296875,-0.16253662109375
27.36,0.010377272963523865,-0.0255743358284235,-0.0018663433147594333,-0.1856231689453125,0.96514892578125,-0.15887451171875
27.38,0.0008287757518701255,0.016414392739534378,-0.011876633390784264,-0.187591552734375,0.9652862548828125,-0.158905029296875
27.4,-0.007947937585413456,0.04211656004190445,-0.018214689567685127,-0.184478759765625,0.9651336669921875,-0.16064453125
27.42,-0.0021028320770710707,0.031864456832408905,-0.01564979925751686,-0.1820831298828125,0.9640655517578125,-0.1615753173828125
27.44,0.011185542680323124,0.004935636185109615,-0.012528575025498867,-0.178955078125,0.96478271484375,-0.163330078125
27.46,0.013768808916211128,-0.019052520394325256,-0.003226952161639929,-0.176513671875,0.968048095703125,-0.16229248046875
27.48,-0.00024447820032946765,-0.03236832469701767,0.0031252196058630943,-0.175384521484375,0.966094970703125,-0.1595458984375
27.5,-0.006084257736802101,-0.02022377960383892,0.00765818590298295,-0.1737518310546875,0.963653564453125,-0.1574859619140625
27.52,-0.0007099987124092877,-0.01984880492091179,0.0006689860601909459,-0.18121337890625,0.966888427734375,-0.160430908203125
27.54,0.004546815063804388,-0.019479159265756607,-0.0023699470330029726,-0.1852569580078125,0.96337890625,-0.1625213623046875
27.56,0.0011472897604107857,-0.01564021222293377,-0.005906891077756882,-0.189300537109375,0.9633026123046875,-0.1619110107421875
27.58,-0.0025997778866440058,0.004760666750371456,-0.012913135811686516,-0.1907806396484375,0.963287353515625,-0.16033935546875
27.6,-0.003123621689155698,0.011666242964565754,-0.021820610389113426,-0.1884002685546875,0.9626922607421875,-0.1613311767578125
27.62,-0.0023907197173684835,0.012002333998680115,-0.018688466399908066,-0.1859893798828125,0.9649200439453125,-0.1603546142578125
27.64,0.006630471907556057,0.008184692822396755,-0.02039741724729538,-0.1814117431640625,0.965606689453125,-0.164276123046875
27.66,0.0010237190872430801,0.00126766471657902,-0.01303164567798376,-0.177825927734375,0.9673614501953125,-0.1646881103515625
27.68,-0.007895739749073982,-0.013594372197985649,-0.010904313065111637,-0.1738433837890625,0.9674072265625,-0.162322998046875
27.7,-0.009771670214831829,-0.018064221367239952,-0.006648315116763115,-0.1753692626953125,0.96697998046875,-0.16046142578125
27.72,-0.015501994639635086,-0.020139623433351517,0.0011936287628486753,-0.1761627197265625,0.9632568359375,-0.159393310546875
27.74,-0.02058224007487297,0.0020295949652791023,-0.007084807381033897,-0.181671142578125,0.9659881591796875,-0.15936279296875
27.76,-0.03369191661477089,0.03604348748922348,-0.014504640363156796,-0.184814453125,0.965576171875,-0.1613616943359375
27.78,-0.03570100665092468,0.04752251133322716,-0.012082495726644993,-0.1855926513671875,0.959075927734375,-0.1632080078125
27.8,-0.008758338168263435,0.024114124476909637,-0.005066131241619587,-0.1858673095703125,0.96142578125,-0.167510986328125
27.82,0.022280272096395493,-0.030105438083410263,0.0012796488590538502,-0.1865692138671875,0.9636383056640625,-0.1707611083984375
27.84,0.02899596467614174,-0.06404822319746017,0.007518636528402567,-0.187408447265625,0.961944580078125,-0.1638031005859375
27.86,0.016028234735131264,-0.05355190858244896,0.007472297176718712,-0.1871795654296875,0.9650421142578125,-0.1566314697265625
27.88,0.0004617921367753297,-0.022910108789801598,-0.0044469465501606464,-0.193115234375,0.9634246826171875,-0.1538543701171875
27.9,-0.008687231689691544,0.005509547423571348,-0.010053965263068676,-0.1925506591796875,0.9623565673828125,-0.1502227783203125
27.92,-0.017653295770287514,0.011522166430950165,-0.01612730510532856,-0.1926116943359375,0.9634857177734375,-0.14947509765625
27.94,-0.017131581902503967,0.032513201236724854,-0.01642637699842453,-0.192138671875,0.96417236328125,-0.1508331298828125
27.96,-0.016867397353053093,0.02634718455374241,-0.015332350507378578,-0.186065673828125,0.964385986328125,-0.157073974609375
27.98,-0.014647386036813259,0.008904545567929745,-0.006472280248999596,-0.18011474609375,0.9633636474609375,-0.1595458984375
28,-0.0031009847298264503,0.002359027974307537,0.00007456851017195731,-0.1786041259765625,0.96417236328125,-0.16265869140625
28.02,0.0027659591287374496,-0.017664480954408646,0.004510063212364912,-0.177001953125,0.965240478515625,-0.1632080078125
28.04,0.01092561800032854,-0.02665797621011734,0.009132511913776398,-0.1783294677734375,0.9632415771484375,-0.16094970703125
28.06,0.011745605617761612,-0.022964172065258026,0.011215103790163994,-0.1813201904296875,0.9654083251953125,-0.1583099365234375
28.08,0.0013038836186751723,-0.004722050856798887,0.012524846941232681,-0.1846923828125,0.9650421142578125,-0.1546173095703125
28.1,-0.017351293936371803,0.007494401652365923,0.011538677848875523,-0.18682861328125,0.962066650390625,-0.1519927978515625
28.12,-0.0142316659912467,0.02064189501106739,0.0051894355565309525,-0.1908416748046875,0.964569091796875,-0.1545562744140625
28.14,-0.001199221471324563,0.002551840851083398,0.002180862706154585,-0.19012451171875,0.96246337890625,-0.1581268310546875
28.16,0.008285360410809517,-0.009554356336593628,0.004801146686077118,-0.1933746337890625,0.964141845703125,-0.1566314697265625
28.18,0.0011547466274350882,0.0016737966798245907,-0.0006644586683250964,-0.1911773681640625,0.9644317626953125,-0.154937744140625
28.2,-0.01275600865483284,0.01913348026573658,-0.0028035095892846584,-0.1900177001953125,0.96234130859375,-0.1536865234375
28.22,-0.010325075127184391,0.01968555338680744,0.0002713761059567332,-0.1896820068359375,0.964202880859375,-0.1524200439453125
28.24,-0.007168430835008621,0.010004431009292603,0.0011776498286053538,-0.188446044921875,0.9649200439453125,-0.1543121337890625
28.26,-0.0035489285364747047,-0.001133174984715879,0.0035899411886930466,-0.1868133544921875,0.963134765625,-0.154937744140625
28.28,0.008466455154120922,0.006173473782837391,0.003206712193787098,-0.183319091796875,0.9656982421875,-0.1566314697265625
28.3,0.006680007092654705,0.0124220484867692,0.0016138756182044744,-0.1831817626953125,0.9665985107421875,-0.1601715087890625
28.32,0.00381391285918653,0.003823500359430909,0.004988633096218109,-0.1802978515625,0.9653778076171875,-0.16058349609375
28.34,0.007640076335519552,0.006710899528115988,0.013593573123216629,-0.177734375,0.9665679931640625,-0.1573944091796875
28.36,0.006054163910448551,-0.0032109732273966074,0.012042547576129436,-0.1776885986328125,0.9634857177734375,-0.1560516357421875
28.38,0.00330311874859035,-0.011063303798437119,0.01962376944720745,-0.1820526123046875,0.9644927978515625,-0.1537628173828125
28.4,-0.0038866172544658184,-0.02467099204659462,0.02376658283174038,-0.184326171875,0.9683074951171875,-0.1533966064453125
28.42,-0.006850183010101318,-0.017943313345313072,0.01998888887465,-0.1868896484375,0.96282958984375,-0.149658203125
28.44,-0.00939163751900196,0.014572018757462502,0.00942306313663721,-0.19439697265625,0.9631500244140625,-0.1522216796875
28.46,-0.00857484620064497,0.034978754818439484,0.0009006810723803937,-0.1939544677734375,0.964630126953125,-0.159027099609375
28.48,-0.005943909287452698,0.033015474677085876,-0.008465656079351902,-0.19140625,0.9622955322265625,-0.1630096435546875
28.5,0.004531634971499443,0.032287366688251495,-0.004637895151972771,-0.189300537109375,0.9617156982421875,-0.1592559814453125
28.52,0.010782606899738312,0.011068097315728664,-0.0029172266367822886,-0.1842498779296875,0.96429443359375,-0.16162109375
28.54,0.011861186474561691,-0.007190801203250885,0.006401440128684044,-0.1827392578125,0.964935302734375,-0.15679931640625
28.56,0.004790760576725006,-0.004416320007294416,0.010896855965256691,-0.17913818359375,0.9651336669921875,-0.1517791748046875
28.58,-0.007635016459971666,-0.00018642126815393567,0.012348544783890247,-0.1788330078125,0.9694671630859375,-0.1516265869140625
28.6,-0.019306587055325508,0.012120844796299934,0.010248908773064613,-0.182769775390625,0.965545654296875,-0.1511383056640625
28.62,-0.013624998740851879,0.025351695716381073,0.007562312297523022,-0.184906005859375,0.9616546630859375,-0.1544036865234375
28.64,-0.006754841655492783,0.027693146839737892,0.0013171994360163808,-0.18792724609375,0.9664459228515625,-0.1563568115234375
28.66,0.0016072177095338702,0.015536881983280182,0.00452897185459733,-0.187530517578125,0.9640960693359375,-0.162017822265625
28.68,0.00532472413033247,0.004605670925229788,0.005786249879747629,-0.1854248046875,0.9620513916015625,-0.1615142822265625
28.7,0.009446232579648495,0.005395830608904362,0.00495081627741456,-0.1866302490234375,0.965545654296875,-0.16058349609375
28.72,0.005760950036346912,0.03142343461513519,0.004822452086955309,-0.1830291748046875,0.964111328125,-0.1599884033203125
28.74,-0.006490123458206654,0.05114707350730896,0.008609999902546406,-0.1795196533203125,0.9662628173828125,-0.1602783203125
28.76,-0.012223376892507076,0.02845667488873005,0.021163076162338257,-0.1750640869140625,0.9642333984375,-0.1595916748046875
28.78,0.005687446799129248,-0.036794498562812805,0.029227927327156067,-0.1763153076171875,0.9637908935546875,-0.156524658203125
28.8,0.03202158212661743,-0.06974659115076065,0.030767234042286873,-0.18212890625,0.9672393798828125,-0.1568756103515625
28.82,0.029271069914102554,-0.04550863057374954,0.02207973599433899,-0.1888427734375,0.9678497314453125,-0.1565399169921875
28.84,-0.0031441280152648687,0.015307850204408169,0.010123740881681442,-0.1925506591796875,0.962646484375,-0.15338134765625
28.86,-0.01943042315542698,0.05355430394411087,-0.0016200009267777205,-0.193145751953125,0.9594879150390625,-0.15167236328125
28.88,-0.004914331249892712,0.043714456260204315,-0.0076182386837899685,-0.193389892578125,0.9637298583984375,-0.1542816162109375
28.9,0.0145901283249259,0.022161228582262993,-0.008081096224486828,-0.190277099609375,0.9654998779296875,-0.156463623046875
28.92,0.010940798558294773,0.029775472357869148,-0.007339405361562967,-0.1846923828125,0.9664764404296875,-0.1577301025390625
28.94,-0.007302920334041119,0.03424958139657974,0.0026972496416419744,-0.17742919921875,0.966583251953125,-0.157867431640625
28.96,-0.008530370891094208,0.024645691737532616,0.005330583080649376,-0.170196533203125,0.9628753662109375,-0.1569366455078125
28.98,0.005351622123271227,0.015296664088964462,0.01648470014333725,-0.1709442138671875,0.96966552734375,-0.1590728759765625
29,0.007773767225444317,-0.022652048617601395,0.021456023678183556,-0.171356201171875,0.970062255859375,-0.162933349609375
29.02,0.0060048955492675304,-0.03154407814145088,0.025491511449217796,-0.1731719970703125,0.96331787109375,-0.1558837890625
29.04,0.00012170646368758753,-0.006677876226603985,0.01509852521121502,-0.178009033203125,0.969207763671875,-0.155609130859375
