timestamp,gyro_x,gyro_y,gyro_z,acc_x,acc_y,acc_z
0,-0.17909230291843414,-0.19160878658294678,0.12529803812503815,-0.12303700298070908,0.2533940076828003,0.9321714639663696
0.02,-0.20678836107254028,-0.08934641629457474,0.10079767554998398,-0.11352100223302841,0.21993550658226013,1.0259590148925781
0.04,-0.028894444927573204,-0.232087641954422,0.06457975506782532,-0.1264529973268509,0.21822749078273773,1.024006962776184
0.06,0.022103585302829742,-0.5291544795036316,0.015579032711684704,-0.08100800216197968,0.24900199472904205,1.0091229677200317
0.08,-0.013981183059513569,-0.5983946323394775,-0.08987903594970703,-0.05929199978709221,0.2648620009422302,0.9903045296669006
0.1,0.009320789016783237,-0.5153064727783203,-0.10159660130739212,-0.0710040032863617,0.24314600229263306,1.0218110084533691
0.12,0.24154159426689148,-0.5344806909561157,-0.15059731900691986,-0.04462150111794472,0.25241798162460327,1.0772600173950195
0.14,0.511045515537262,-0.43980807065963745,-0.37642672657966614,0.011559500358998775,0.24656200408935547,1.1373449563980103
0.16,0.3139774203300476,-0.026497671380639076,-0.4742949903011322,0.05773650482296944,0.22164349257946014,1.0704280138015747
0.18,-0.3133116662502289,0.252460241317749,0.15938548743724823,-0.14112350344657898,0.29222050309181213,0.9111570119857788
0.2,-1.009840965270996,-0.043541401624679565,0.35418999195098877,-0.00750300008803606,0.2714805006980896,0.9194530248641968
0.22,-1.4645622968673706,-0.37482887506484985,0.3637770712375641,0.0340379998087883,0.21554350852966309,0.9443714618682861
0.24,-1.4901278018951416,-0.7070484161376953,0.2860150635242462,0.009363500401377678,0.20453299582004547,1.051121473312378
0.26,-0.6764229536056519,-1.6166242361068726,0.28281936049461365,0.01936749927699566,0.17839449644088745,1.2011204957962036
0.28,0.3384777903556824,-2.4110217094421387,0.5118444561958313,0.06749650090932846,0.1139175072312355,1.2365310192108154
0.3,0.9423317909240723,-1.725144863128662,0.559779942035675,0.10022300481796265,0.08460699766874313,1.0631080865859985
0.32,0.8049166798591614,-0.11597724258899689,0.2987978756427765,0.25729799270629883,0.10903750360012054,0.9182329773902893
0.34,0.6079817414283752,0.45485448837280273,0.10186290740966797,0.08899899572134018,0.3007909953594208,0.9365634918212891
0.36,0.967897355556488,-0.22569625079631805,0.14660269021987915,0.015463500283658504,0.2538820207118988,0.9961604475975037
0.38,1.4460538625717163,-1.038335919380188,0.19134248793125153,0.07628049701452255,0.1676584929227829,1.0882705450057983
0.4,0.8890700936317444,-0.4738955497741699,0.04327509179711342,0.2883164882659912,0.2739205062389374,0.8916065096855164
0.42,0.42582690715789795,-0.5877423286437988,0.7994573712348938,0.02546750009059906,0.2160314917564392,0.7714365124702454
0.44,-0.1407439112663269,-0.31304535269737244,1.592789649963379,0.18986250460147858,0.1004670038819313,0.8307894468307495
0.46,-0.29520270228385925,-0.7943975329399109,1.7025086879730225,0.4185210168361664,0.13371199369430542,0.9167689681053162
0.48,-0.044872939586639404,-2.2140867710113525,1.9017072916030884,0.38945451378822327,0.003263500053435564,0.9856684803962708
0.5,0.6185009479522705,-3.740166187286377,2.0645546913146973,0.5005965232849121,-0.03827749937772751,0.9981124997138977
0.52,1.6143606901168823,-4.4494781494140625,2.243513822555542,0.5372270345687866,-0.08100800216197968,0.9414434432983398
0.54,2.0935823917388916,-5.0874199867248535,2.796236753463745,0.5372270345687866,-0.08100800216197968,0.9414434432983398
0.56,2.1223435401916504,-4.512327194213867,3.645094156265259,0.491812527179718,-0.2908480167388916,0.46390500664711
0.58,2.0051679611206055,-4.7827630043029785,4.322449207305908,0.491812527179718,-0.2908480167388916,0.46390500664711
0.6,2.1958446502685547,-5.6028594970703125,5.226565837860107,0.45661550760269165,-0.3467850089073181,0.33296850323677063
0.62,2.7464370727539062,-6.382476806640625,6.078619003295898,0.5015724897384644,-0.6628869771957397,0.31659001111984253
0.64,3.4706623554229736,-6.3196282386779785,6.830540657043457,0.5015724897384644,-0.6628869771957397,0.31659001111984253
0.66,3.636838674545288,-4.875438213348389,6.914560794830322,0.8301184773445129,-0.6814310550689697,0.2516250014305115
0.68,3.458944797515869,-2.723134994506836,6.484339714050293,1.1787029504776,-0.6736230254173279,0.2579690217971802
0.7,3.591033697128296,-1.1702916622161865,5.664376735687256,1.5592820644378662,-0.5705329775810242,0.4458184838294983
0.72,4.045754909515381,0.16404588520526886,4.138164043426514,2.4301180839538574,-0.1819019913673401,0.7951350212097168
0.74,4.763588905334473,1.4356677532196045,1.5342018604278564,2.4301180839538574,-0.1819019913673401,0.7951350212097168
0.76,4.722044944763184,1.8042384386062622,-0.0717700719833374,2.3653664588928223,-0.14283150434494019,0.46000099182128906
0.78,3.5217936038970947,1.5933222770690918,-1.2762823104858398,2.0881216526031494,-0.10031449794769287,-0.15192049741744995
0.8,0.9987891316413879,1.1077091693878174,-2.1453793048858643,1.6227830648422241,-0.002836500061675906,-1.1233760118484497
0.82,-1.0481892824172974,-0.047802332788705826,-3.145366907119751,1.4180670976638794,-0.0055509996600449085,-1.5667545795440674
0.84,-2.2782671451568604,-0.031823836266994476,-3.4328465461730957,1.1176115274429321,-0.39320600032806396,-1.1236200332641602
0.86,-0.8031857013702393,-2.3971738815307617,-1.296521782875061,0.6063705086708069,-0.7232159972190857,-0.5525379776954651
0.88,-0.5327496528625488,-2.8413758277893066,-0.05898727849125862,0.16839049756526947,-0.3790234923362732,-0.2391199916601181
0.9,-2.079068660736084,-2.409956455230713,0.2796236574649811,0.7399910092353821,-0.14771150052547455,-0.5566859841346741
0.92,-4.08876371383667,0.3493964374065399,-0.28801238536834717,1.6603895425796509,-0.01579900085926056,-0.4018069803714752
0.94,-3.423126220703125,1.5411258935928345,-1.6425893306732178,1.5837124586105347,-0.41077399253845215,1.075308084487915
0.96,-2.3017022609710693,1.3834713697433472,-1.76296067237854,0.7072340250015259,-0.3690195083618164,0.6815530061721802
0.98,-1.6626956462860107,-0.38761165738105774,-1.0728228092193604,0.2841684818267822,-0.34483301639556885,0.4206559658050537
1,-1.0833419561386108,-1.9669528007507324,0.16577689349651337,0.5118204951286316,-0.43764451146125793,0.45021048188209534
1.02,-0.7371412515640259,-2.4259350299835205,0.49799644947052,1.1022394895553589,-0.4203205108642578,0.019306501373648643
1.04,-1.5753464698791504,-2.873332977294922,0.310515433549881,1.2612664699554443,-0.46500298380851746,-0.1668044924736023
1.06,-2.415682077407837,-1.3417941331863403,0.0038614696823060513,1.2612664699554443,-0.46500298380851746,-0.1668044924736023
1.08,-3.245232343673706,-1.746449589729309,0.2987978756427765,1.0829330682754517,-0.7434985041618347,-0.32583150267601013
1.1,-3.8203251361846924,-2.9509618282318115,2.3244717121124268,0.8098359704017639,-0.6269580125808716,-0.11452750116586685
1.12,-3.8394992351531982,-2.2428481578826904,4.849606513977051,0.39945849776268005,-0.42300450801849365,-0.27331048250198364
1.14,-2.762814998626709,0.9852073788642883,7.754896640777588,0.39945849776268005,-0.42300450801849365,-0.27331048250198364
1.16,0.15845340490341187,5.00339937210083,4.07211971282959,0.7119004726409912,-1.0764365196228027,0.3017060160636902
1.18,-0.3995955288410187,2.183328151702881,0.8461945056915283,0.6706035137176514,-1.0676219463348389,-0.042974501848220825
1.2,0.4098483920097351,1.094926357269287,1.0826761722564697,0.30225497484207153,-0.8133435249328613,0.24552500247955322
1.22,0.4023917615413666,0.2450035959482193,1.536332368850708,0.30225497484207153,-0.8133435249328613,0.24552500247955322
1.24,0.04340824484825134,0.10439283400774002,0.582149863243103,1.045082449913025,-0.3445890247821808,-0.3055489957332611
1.26,-0.22063638269901276,0.9809464812278748,-0.0504654161632061,1.045082449913025,-0.3445890247821808,-0.3055489957332611
1.28,-0.09174319356679916,1.5848004817962646,-0.18042384088039398,0.6315329670906067,-0.623054027557373,0.0630434975028038
1.3,0.12436595559120178,2.299438714981079,0.2231663167476654,0.7209285497665405,-0.5769074559211731,-0.247172012925148
1.32,-0.43581345677375793,2.013956069946289,-0.09413997083902359,0.9828015565872192,-0.3484930098056793,-0.7098264694213867
1.34,-1.417691946029663,0.9852073788642883,-0.6969286799430847,0.8015400171279907,-0.4471909999847412,-0.2713584899902344
1.36,-1.579607367515564,1.2440589666366577,-0.5584484338760376,0.3999464809894562,-0.45499899983406067,-0.13968999683856964
1.38,-1.394256830215454,0.6636402010917664,0.7302172183990479,0.029889998957514763,-0.23735098540782928,-0.10135149955749512
1.4,-0.1407439112663269,-0.2427399754524231,2.454430103302002,0.25827401876449585,-0.32625851035118103,0.3674030005931854
1.42,2.1031694412231445,-1.8700165748596191,1.9325990676879883,0.8069080114364624,-1.4193785190582275,0.7579860091209412
1.44,0.7292851805686951,-1.3471202850341797,1.5895940065383911,0.7047939896583557,-1.3734759092330933,-0.784093976020813
1.46,-0.1716356724500656,-0.30984964966773987,1.0464582443237305,0.7294684648513794,-1.0151315927505493,-0.13505400717258453
1.48,-0.4485962688922882,-0.05632419511675835,1.1050461530685425,0.47836199402809143,-0.7481344938278198,-0.10061950236558914
1.5,-0.3303554058074951,-0.18308693170547485,1.5416585206985474,0.45954349637031555,-0.8250859975814819,-0.08228899538516998
1.52,-0.10452599078416824,-0.4227643609046936,1.8164886236190796,0.45417550206184387,-0.8783390522003174,-0.1054994985461235
1.54,-0.17909230291843414,-0.1553908735513687,1.6801388263702393,0.4773860275745392,-0.987773060798645,-0.10891549289226532
1.56,-0.2802894413471222,-0.40998154878616333,1.6982477903366089,0.43929150700569153,-0.8407019972801208,-0.07423700392246246
1.58,-0.16524426639080048,-0.5504591464996338,1.6492470502853394,0.43929150700569153,-0.8407019972801208,-0.07423700392246246
1.6,-0.14607007801532745,-0.655917227268219,1.6588340997695923,0.29441651701927185,-0.9579439759254456,-0.16704849898815155
1.62,-0.21211452782154083,-0.7752233147621155,1.361767292022705,0.34864550828933716,-1.006561040878296,-0.1953829973936081
1.64,-0.343138188123703,0.07363422960042953,0.6865426898002625,0.3315654993057251,-1.0126609802246094,-0.17122700810432434
1.66,0.20319320261478424,0.2130466103553772,-0.15059731900691986,0.30445098876953125,-1.0437099933624268,-0.059566497802734375
1.68,0.04660394415259361,0.5667039752006531,0.009187635034322739,0.10559099912643433,-0.984814465045929,-0.19221100211143494
1.7,0.07962616533041,-0.1575213372707367,-0.01637795753777027,0.18888649344444275,-0.9139935374259949,-0.09744749963283539
1.72,0.12010502070188522,-0.2949363887310028,-0.05153064802289009,0.21282900869846344,-0.9152135252952576,-0.24741600453853607
1.74,0.07323476672172546,-0.3918725848197937,-0.11011846363544464,0.18181049823760986,-0.902006983757019,-0.2093214988708496
1.76,0.013581721112132072,-0.2118482142686844,-0.11650986224412918,0.18522650003433228,-0.9081375002861023,-0.1958709955215454
1.78,-0.054460037499666214,0.17363297939300537,-0.10798799991607666,0.23042751848697662,-0.921313464641571,-0.10452349483966827
1.8,-0.024633513763546944,0.10133028775453568,-0.08668334037065506,0.21673299372196198,-0.9117974638938904,-0.18001100420951843
1.82,-0.12263495475053787,0.444202184677124,0.2529928386211395,0.2323794960975647,-0.8834630250930786,-0.16607250273227692
1.84,-0.17483137547969818,0.017176883295178413,0.6109111309051514,0.2795324921607971,-0.9137495160102844,-0.11553400754928589
1.86,0.05512581020593643,-0.5504591464996338,1.0698933601379395,0.2709619998931885,-0.9196054935455322,-0.1778150051832199
1.88,0.3576519787311554,-1.0628362894058228,1.4278117418289185,0.271450012922287,-0.9157015085220337,-0.08793149888515472
1.9,0.05299534276127815,-0.6410039663314819,1.5405932664871216,0.1979449987411499,-0.8880990147590637,-0.14728449285030365
1.92,0.04979964345693588,-1.238466501235962,1.990121603012085,0.1542080044746399,-1.0239155292510986,-0.10183950513601303
1.94,0.45884913206100464,-2.352433919906616,2.4469733238220215,0.1542080044746399,-1.0239155292510986,-0.10183950513601303
1.96,0.7537854909896851,-3.0265934467315674,2.783453941345215,-0.022631000727415085,-0.9088694453239441,-0.0991555005311966
1.98,0.8283518552780151,-3.1618778705596924,2.937912702560425,-0.11498500406742096,-0.8922470211982727,-0.12456199526786804
2,0.45778387784957886,-2.2790660858154297,2.6301934719085693,-0.119377002120018,-1.0905884504318237,-0.17952300608158112
2.02,0.07323476672172546,-1.0276836156845093,2.069880962371826,-0.1386834979057312,-1.209568977355957,-0.20322149991989136
2.04,-0.13754820823669434,-0.4216991364955902,1.6013115644454956,-0.21658051013946533,-0.9010310173034668,-0.06838100403547287
2.06,-0.3228987455368042,-0.41637295484542847,1.1753515005111694,-0.23588699102401733,-0.8030955195426941,-0.06325700134038925
2.08,-0.41131308674812317,-0.3599156141281128,0.6268896460533142,-0.26958951354026794,-0.8468019962310791,-0.11968199908733368
2.1,-0.3324858546257019,-0.12236864119768143,0.2753627300262451,-0.4361805021762848,-0.8778510093688965,-0.06374499946832657
2.12,-0.26537618041038513,-0.19800019264221191,-0.02063889056444168,-0.47894150018692017,-0.9113094806671143,-0.0886635035276413
2.14,-0.14287437498569489,0.0768299326300621,-0.26990342140197754,-0.46378299593925476,-0.9056975245475769,-0.10745150595903397
2.16,-0.3101159632205963,0.46550682187080383,-0.5232957005500793,-0.4467029869556427,-0.9398880004882812,-0.04956250265240669
2.18,-0.5828156471252441,0.2865476906299591,-0.6809502243995667,-0.4034540057182312,-0.9130174517631531,-0.17122700810432434
2.2,-0.6561835408210754,0.35578784346580505,-0.6500584483146667,-0.4034540057182312,-0.9130174517631531,-0.17122700810432434
2.22,-0.5796199440956116,0.360048770904541,-0.686276376247406,-0.33800098299980164,-0.9609025120735168,-0.15997250378131866
2.24,-0.25365862250328064,0.10758853703737259,-0.6585803031921387,-0.3140585124492645,-0.886879026889801,-0.14826050400733948
2.26,-0.28348514437675476,-0.03608476743102074,-0.7107767462730408,-0.3143025040626526,-0.8336259722709656,-0.13627399504184723
2.28,-0.4805532395839691,-0.12449911236763,-0.6138405203819275,-0.31210649013519287,-0.8678165078163147,-0.19611500203609467
2.3,-0.1737661361694336,-0.3929378390312195,-0.3295564651489258,-0.16064350306987762,-0.9909449815750122,-0.27968502044677734
2.32,0.23408496379852295,-0.7613753080368042,-0.17190198600292206,-0.2647095024585724,-0.9525759816169739,-0.13554200530052185
2.34,0.16910573840141296,-0.21504391729831696,-0.18575000762939453,-0.21929500997066498,-0.9587064981460571,-0.11403950303792953
2.36,-0.0778951644897461,-0.30132779479026794,-0.1889457106590271,-0.19657249748706818,-0.965538501739502,-0.16338850557804108
2.38,-0.1833532303571701,-0.3780245780944824,-0.22516362369060516,-0.1806820034980774,-0.9242414832115173,-0.23546001315116882
2.4,-0.11517832428216934,-0.22356578707695007,-0.19427187740802765,-0.20560051500797272,-0.9569680094718933,-0.22935999929904938
2.42,-0.057655736804008484,-0.38654643297195435,-0.16231487691402435,-0.20560051500797272,-0.9569680094718933,-0.22935999929904938
2.44,-0.007589785382151604,-0.39719876646995544,-0.15379302203655243,-0.19852450489997864,-0.944767951965332,-0.16046050190925598
2.46,0.1222354918718338,-0.22463101148605347,-0.11544463038444519,-0.19852450489997864,-0.944767951965332,-0.16046050190925598
2.48,0.24899822473526,-0.022236740216612816,-0.04726971685886383,-0.20096451044082642,-0.9980210065841675,-0.1731790006160736
2.5,0.3065207898616791,0.05659050494432449,-0.06324820965528488,-0.2109685093164444,-0.9740785360336304,-0.13627399504184723
2.52,0.3480648994445801,0.013981183059513569,-0.09520520269870758,-0.23515498638153076,-0.9691985249519348,-0.14115400612354279
2.54,0.5792204737663269,0.021437814459204674,-0.1580539494752884,-0.23515498638153076,-0.9691985249519348,-0.14115400612354279
2.56,0.6930672526359558,0.07469946891069412,-0.2219679355621338,-0.22222298383712769,-0.9618784785270691,-0.14948049187660217
2.58,0.752720296382904,0.019307348877191544,-0.22622886300086975,-0.20389249920845032,-0.9670025110244751,-0.1130634993314743
2.6,0.8102428913116455,-0.009453942999243736,-0.23475073277950287,-0.17409400641918182,-0.9467200040817261,-0.09891150146722794
2.62,0.776155412197113,-0.012649642303586006,-0.21238084137439728,-0.1479555070400238,-0.940619945526123,-0.05517449975013733
2.64,0.6738930344581604,-0.11810771375894547,-0.20279373228549957,-0.1479555070400238,-0.940619945526123,-0.05517449975013733
2.66,0.5888075828552246,-0.17989122867584229,-0.17296721041202545,-0.20389249920845032,-0.960170567035675,-0.04614650085568428
2.68,0.47802332043647766,-0.18095645308494568,-0.13142313063144684,-0.16994599997997284,-0.9476959705352783,-0.04273049905896187
2.7,0.4418053925037384,-0.20439158380031586,-0.06005251035094261,-0.1643339991569519,-0.9604145288467407,-0.03711850196123123
2.72,0.4130440950393677,-0.14793424308300018,-0.02276935614645481,-0.1660420000553131,-0.9604145288467407,-0.04102249816060066
2.74,0.4013265371322632,-0.059519894421100616,-0.0003994623839389533,-0.20023249089717865,-0.9611465334892273,-0.03172000125050545
2.76,0.4087831676006317,-0.06271559745073318,-0.03129122033715248,-0.16970200836658478,-0.9770064353942871,-0.005093500018119812
2.78,0.38534805178642273,0.040612008422613144,-0.0824224054813385,-0.18556199967861176,-0.991921067237854,0.01174249965697527
2.8,0.3150426745414734,0.14593692123889923,-0.06218297779560089,-0.18019400537014008,-0.9907009601593018,0.030561000108718872
2.82,0.23728065192699432,0.4569849669933319,-0.05153064802289009,-0.1941325068473816,-0.9652945399284363,0.04349300265312195
2.84,-1.1557778120040894,4.043890953063965,-0.17190198600292206,-0.09592249989509583,-0.845337986946106,1.1520154476165771
2.86,-1.6531084775924683,-0.8359416127204895,0.0027962366584688425,-0.11986500769853592,-1.0344074964523315,-0.2215214967727661
2.88,-0.21957115828990936,0.5411383509635925,-0.10905323177576065,-0.21414048969745636,-0.9604145288467407,-0.12700200080871582
2.9,0.43541398644447327,0.28228676319122314,0.01983996480703354,-0.14551550149917603,-0.9955809712409973,-0.06886900216341019
2.92,0.5387415885925293,0.20026381313800812,0.05392742156982422,-0.14234349131584167,-0.9628545045852661,-0.035654500126838684
2.94,0.44713157415390015,0.0981345921754837,0.06138405203819275,-0.1281609982252121,-0.964074432849884,-0.029280001297593117
2.96,0.40452224016189575,0.066177599132061,0.06031882017850876,-0.12620899081230164,-0.9740785360336304,-0.035654500126838684
2.98,0.41730502247810364,0.024633513763546944,0.09014534205198288,-0.13917149603366852,-0.9591944813728333,-0.021959999576210976
3,0.48867565393447876,-0.12236864119768143,0.1295589655637741,-0.14819949865341187,-0.9645625352859497,-0.010979999788105488
3.02,0.6600450277328491,-0.22569625079631805,0.16897258162498474,-0.15478749573230743,-0.9975330233573914,-0.015128000639379025
3.04,0.8208951950073242,-0.2640446424484253,0.1934729516506195,-0.16531001031398773,-1.012416958808899,-0.007564000319689512
3.06,0.9817453622817993,-0.39932921528816223,0.28388461470603943,-0.17555800080299377,-1.0256235599517822,0.04937949776649475
3.08,1.090399146080017,-0.22889193892478943,0.24873191118240356,-0.14941950142383575,-1.0099769830703735,0.04446899890899658
3.1,0.9487231373786926,-0.25658801198005676,0.1412765234708786,-0.18946599960327148,-0.9533079862594604,0.12215249985456467
3.12,0.5003932118415833,-0.1149120107293129,0.13595037162303925,-0.1975484937429428,-0.9401319622993469,0.15905749797821045
3.14,0.23088926076889038,-0.03608476743102074,0.16045072674751282,-0.2156044989824295,-0.9222895503044128,0.18714800477027893
3.16,0.31823837757110596,0.025698747485876083,0.16897258162498474,-0.2109685093164444,-0.9350079894065857,0.18223750591278076
3.18,0.3991960883140564,0.04593817517161369,0.1732335239648819,-0.20486849546432495,-0.9606585502624512,0.14609499275684357
3.2,0.380021870136261,0.09067796170711517,0.17003782093524933,-0.2126764953136444,-0.9633424878120422,0.14951099455356598
3.22,0.39493513107299805,0.10133028775453568,0.16364642977714539,-0.22539499402046204,-0.9508680105209351,0.16735349595546722
3.24,0.4332835376262665,0.1384802907705307,0.2041252851486206,-0.22539499402046204,-0.9508680105209351,0.16735349595546722
3.26,0.4524577260017395,0.14274121820926666,0.205190509557724,-0.23808300495147705,-0.942084014415741,0.17516149580478668
3.28,0.464175283908844,0.1587197184562683,0.21264714002609253,-0.2554375231266022,-0.9748104810714722,0.20032399892807007
3.3,0.45884913206100464,0.15658925473690033,0.18708154559135437,-0.2454030066728592,-0.9423280358314514,0.1971520036458969
3.32,0.47802332043647766,0.1480673849582672,0.1934729516506195,-0.2336909919977188,-0.9567239880561829,0.2264624983072281
3.34,0.47908854484558105,0.12569749355316162,0.19986434280872345,-0.24491499364376068,-0.9542840719223022,0.2433290034532547
3.36,0.5153064727783203,0.07363422960042953,0.2785584330558777,-0.2314949929714203,-0.929609477519989,0.22011849284172058
3.38,0.4844147264957428,0.10545806586742401,0.20838621258735657,-0.26836949586868286,-0.8946870565414429,0.2577250003814697
3.4,0.4183702766895294,0.10865376889705658,0.19666863977909088,-0.26129350066185,-0.9220454692840576,0.2680034935474396
3.42,0.42476168274879456,0.13421936333179474,0.19879911839962006,-0.27303600311279297,-0.9239975214004517,0.29142749309539795
3.44,0.44500109553337097,0.1374150663614273,0.205190509557724,-0.27620798349380493,-0.9208254814147949,0.3056100010871887
3.46,0.47908854484558105,0.10758853703737259,0.26151469349861145,-0.27080950140953064,-0.9166774749755859,0.3034140169620514
3.48,0.4343487620353699,0.07896039634943008,0.2041252851486206,-0.30405449867248535,-0.8724524974822998,0.323696494102478
3.5,0.3789566457271576,0.0778951644897461,0.1828206181526184,-0.29475200176239014,-0.8866350054740906,0.33296850323677063
3.52,0.4194355010986328,0.12250179797410965,0.2147776037454605,-0.30917850136756897,-0.8973709940910339,0.3307724893093109
3.54,0.4183702766895294,0.1480673849582672,0.17110306024551392,-0.31967049837112427,-0.9064295291900635,0.35325101017951965
3.56,0.356586754322052,0.1288931965827942,0.11571093648672104,-0.34141701459884644,-0.8893189430236816,0.35861900448799133
3.58,0.2948032319545746,0.10971900075674057,0.10612384229898453,-0.2967039942741394,-0.9049655199050903,0.3412644863128662
3.6,0.25538963079452515,0.11397993564605713,0.10292813926935196,-0.31869450211524963,-0.9100895524024963,0.36032700538635254
3.62,0.23621542751789093,0.10971900075674057,0.12210233509540558,-0.28133198618888855,-0.9074054956436157,0.367158979177475
3.64,0.17230144143104553,0.05232957378029823,0.08375394344329834,-0.3172304928302765,-0.8707444667816162,0.37008699774742126
3.66,0.1222354918718338,0.029959678649902344,0.09547150880098343,-0.3108865022659302,-0.8673285245895386,0.38304951786994934
3.68,0.08388710021972656,-0.0009320789249613881,0.08375394344329834,-0.32259851694107056,-0.8690364956855774,0.3837814927101135
3.7,0.04553871229290962,-0.011584409512579441,0.06564498692750931,-0.33556100726127625,-0.8734285235404968,0.38256150484085083
3.72,0.0018641578499227762,-0.014780107885599136,0.04434032365679741,-0.34239301085472107,-0.8805349469184875,0.3737470209598541
3.74,-0.033155377954244614,-0.007323476951569319,0.01983996480703354,-0.3450770080089569,-0.8766005039215088,0.37130698561668396
3.76,-0.066177599132061,0.011850717477500439,-0.006790860556066036,-0.3394649922847748,-0.8822430372238159,0.37545499205589294
3.78,-0.09067796170711517,0.010785484686493874,-0.03448691964149475,-0.33678099513053894,-0.8798030018806458,0.3781695067882538
3.8,-0.12370018661022186,0.004394086077809334,-0.06431344151496887,-0.33434098958969116,-0.8766005039215088,0.3793894946575165
3.82,-0.14607007801532745,-0.004127778112888336,-0.0717700719833374,-0.3289729952812195,-0.8802909851074219,0.3732590079307556
3.84,-0.1822880059480667,-0.015845341607928276,-0.08455286920070648,-0.3289729952812195,-0.8802909851074219,0.3732590079307556
3.86,-0.20146219432353973,-0.025432437658309937,-0.09946613013744354,-0.32503849267959595,-0.8822430372238159,0.36252298951148987
3.88,-0.23022349178791046,-0.037150003015995026,-0.11970555782318115,-0.31576648354530334,-0.89102703332901,0.3622789978981018
3.9,-0.2675066292285919,-0.044606633484363556,-0.13887976109981537,-0.31576648354530334,-0.89102703332901,0.3622789978981018
3.92,-0.2983984053134918,-0.055258963257074356,-0.1463363915681839,-0.31503450870513916,-0.8863910436630249,0.3559350073337555
3.94,-0.3228987455368042,-0.06697652488946915,-0.15379302203655243,-0.31503450870513916,-0.8927350044250488,0.35032299160957336
3.96,-0.33674678206443787,-0.0712374597787857,-0.16338011622428894,-0.317718505859375,-0.8873670101165771,0.3424845039844513
3.98,-0.34952959418296814,-0.08082455396652222,-0.18361954391002655,-0.3030785024166107,-0.8981029987335205,0.3315044939517975
4,-0.3633776009082794,-0.08188978582620621,-0.2006632685661316,-0.3030785024166107,-0.8981029987335205,0.3315044939517975
4.02,-0.3729647099971771,-0.0829550251364708,-0.2102503627538681,-0.2962160110473633,-0.9105775356292725,0.3104900121688843
4.04,-0.3846822679042816,-0.08082455396652222,-0.2209026962518692,-0.2962160110473633,-0.9105775356292725,0.3104900121688843
4.06,-0.3932041525840759,-0.0712374597787857,-0.2315550297498703,-0.29304400086402893,-0.9130174517631531,0.3056100010871887
4.08,-0.408117413520813,-0.07017222791910172,-0.2432725876569748,-0.28718802332878113,-0.9164334535598755,0.2965819835662842
4.1,-0.42409589886665344,-0.0829550251364708,-0.24753352999687195,-0.2769399881362915,-0.9247294664382935,0.2819114923477173
4.12,-0.4390091598033905,-0.09147688746452332,-0.24966399371623993,-0.26324549317359924,-0.9230215549468994,0.2753235101699829
4.14,-0.4294220507144928,-0.09467258304357529,-0.24433782696723938,-0.2598295211791992,-0.9259494543075562,0.26922348141670227
4.16,-0.431552529335022,-0.10212921351194382,-0.23794642090797424,-0.24982549250125885,-0.9293654561042786,0.2577250003814697
4.18,-0.4262263774871826,-0.1149120107293129,-0.22942456603050232,-0.24640949070453644,-0.931835949420929,0.24820898473262787
4.2,-0.42303067445755005,-0.12662957608699799,-0.22516362369060516,-0.2361309975385666,-0.9394000172615051,0.23793049156665802
4.22,-0.42409589886665344,-0.13941237330436707,-0.21557652950286865,-0.22759099304676056,-0.9398880004882812,0.23134249448776245
4.24,-0.42303067445755005,-0.1468690037727356,-0.20705467462539673,-0.227835014462471,-0.9474520087242126,0.21548250317573547
4.26,-0.4166392683982849,-0.145803764462471,-0.1900109350681305,-0.21831899881362915,-0.9511120319366455,0.21032798290252686
4.28,-0.41344356536865234,-0.12876003980636597,-0.18255430459976196,-0.21462850272655487,-0.9591944813728333,0.20032399892807007
4.3,-0.41344356536865234,-0.1255643367767334,-0.16231487691402435,-0.21414048969745636,-0.961390495300293,0.18544000387191772
4.32,-0.41344356536865234,-0.09999874979257584,-0.14207544922828674,-0.2168245017528534,-0.9535519480705261,0.1773574948310852
4.34,-0.40385645627975464,-0.08402025699615479,-0.13035789132118225,-0.2063324898481369,-0.95306396484375,0.15073099732398987
4.36,-0.39107367396354675,-0.06910699605941772,-0.1250317245721817,-0.2063324898481369,-0.95306396484375,0.15073099732398987
4.38,-0.3644428551197052,-0.054193731397390366,-0.1260969638824463,-0.1999884992837906,-0.9562360048294067,0.14682699739933014
4.4,-0.3420729637145996,-0.031823836266994476,-0.12290126085281372,-0.1953524947166443,-0.9537959694862366,0.14097100496292114
4.42,-0.30798548460006714,0.006524552125483751,-0.11544463038444519,-0.19559650123119354,-0.961390495300293,0.133651003241539
4.44,-0.2877460718154907,0.020372580736875534,-0.11650986224412918,-0.19657249748706818,-0.9591944813728333,0.11946850270032883
4.46,-0.25472384691238403,0.051264338195323944,-0.12290126085281372,-0.19437649846076965,-0.9576999545097351,0.11361250281333923
4.48,-0.23874534666538239,0.05659050494432449,-0.12290126085281372,-0.19068600237369537,-0.96236652135849,0.11385650932788849
4.5,-0.22915825247764587,0.050199106335639954,-0.12290126085281372,-0.18214599788188934,-0.9626104831695557,0.10434050112962723
4.52,-0.19826649129390717,0.05232957378029823,-0.11118369549512863,-0.18019400537014008,-0.9674904942512512,0.10016199946403503
4.54,-0.1631138026714325,0.036351077258586884,-0.09733566641807556,-0.17287400364875793,-0.9564799666404724,0.10113800317049026
4.56,-0.14393961429595947,0.029959678649902344,-0.09094426780939102,-0.17214199900627136,-0.9633424878120422,0.09381800144910812
4.58,-0.12689588963985443,0.018242115154862404,-0.08135717362165451,-0.16088749468326569,-0.9701744914054871,0.08332599699497223
4.6,-0.10452599078416824,0.0011983871227130294,-0.06431344151496887,-0.155519500374794,-0.9731025695800781,0.08308199793100357
4.62,-0.09600412845611572,-0.008388710208237171,-0.06005251035094261,-0.15015150606632233,-0.9821305274963379,0.07475549727678299
4.64,-0.08641702681779861,-0.024367205798625946,-0.04940018057823181,-0.14307551085948944,-0.9711505174636841,0.06987550109624863
4.66,-0.07256899774074554,-0.020106272771954536,-0.03555215150117874,-0.14307551085948944,-0.9711505174636841,0.06987550109624863
4.68,-0.036351077258586884,-0.019041040912270546,-0.02703028731048107,-0.15161550045013428,-0.9479399919509888,0.07673799991607666
4.7,-0.007589785382151604,-0.030758604407310486,-0.01744319126009941,-0.15991149842739105,-0.9442799687385559,0.0777139961719513
4.72,0.011451254598796368,-0.042476166039705276,-0.011051792651414871,-0.15454350411891937,-0.9660264849662781,0.06645949929952621
4.74,0.024234050884842873,-0.040345702320337296,-0.006790860556066036,-0.15112748742103577,-0.974322497844696,0.06182350218296051
4.76,0.03382114693522453,-0.041410934180021286,0.004926702938973904,-0.17092199623584747,-0.9677344560623169,0.06816750019788742
4.78,0.03595161437988281,-0.037150003015995026,0.009187635034322739,-0.16970200836658478,-0.9704185128211975,0.08259399980306625
4.8,0.05512581020593643,-0.023301972076296806,0.014513799920678139,-0.15649549663066864,-0.9657825231552124,0.0899140015244484
4.82,0.07110430300235748,-0.015845341607928276,0.02197043038904667,-0.15649549663066864,-0.9609025120735168,0.07475549727678299
4.84,0.09773512929677963,-0.007323476951569319,0.02942706272006035,-0.15600749850273132,-0.9574559926986694,0.07304749637842178
4.86,0.12436595559120178,0.0001331541279796511,0.03901416063308716,-0.1601555049419403,-0.9638304710388184,0.0777139961719513
4.88,0.13927921652793884,0.005459319334477186,0.0454055592417717,-0.15820351243019104,-0.9589504599571228,0.08893799781799316
4.9,0.13927921652793884,0.00226362026296556,0.04007939249277115,-0.16531001031398773,-0.961390495300293,0.09772200137376785
4.92,0.1339530497789383,0.0011983871227130294,0.04220985993742943,-0.161375492811203,-0.9716385006904602,0.09479400515556335
4.94,0.15951864421367645,0.0033288532868027687,0.05286218971014023,-0.16357149183750153,-0.9648065567016602,0.09723400324583054
4.96,0.19467133283615112,0.00226362026296556,0.06777545064687729,-0.1684820055961609,-0.9650505185127258,0.10113800317049026
4.98,0.1968017965555191,-0.005193010903894901,0.07203638553619385,-0.1736059933900833,-0.9596824645996094,0.10897650569677353
5,0.1861494779586792,-0.017975807189941406,0.06564498692750931,-0.16921399533748627,-0.9750545024871826,0.11678449809551239
5.02,0.17123620212078094,-0.020106272771954536,0.06457975506782532,-0.17092199623584747,-0.9684664607048035,0.11800450086593628
5.04,0.17869283258914948,-0.023301972076296806,0.07310161739587784,-0.17214199900627136,-0.9652945399284363,0.11458849906921387
5.06,0.19360610842704773,-0.015845341607928276,0.08162347972393036,-0.17238600552082062,-0.9650505185127258,0.12215249985456467
5.08,0.20212796330451965,-0.013714875094592571,0.08588441461324692,-0.17629000544548035,-0.9745665192604065,0.12434849888086319
5.1,0.20532366633415222,-0.010519175790250301,0.08588441461324692,-0.17702199518680573,-0.9713944792747498,0.13438299298286438
5.12,0.2063889056444168,-0.010519175790250301,0.08375394344329834,-0.1765339970588684,-0.9696865081787109,0.12971650063991547
5.14,0.20212796330451965,-0.005193010903894901,0.07949301600456238,-0.18556199967861176,-0.9667584896087646,0.14463099837303162
5.16,0.2063889056444168,0.013981183059513569,0.08055824786424637,-0.1853180080652237,-0.9677344560623169,0.15268298983573914
5.18,0.22236739099025726,0.023568280041217804,0.07842778414487839,-0.1870260089635849,-0.9691985249519348,0.15390300750732422
5.2,0.2191716879606247,0.029959678649902344,0.07523208111524582,-0.1899539977312088,-0.966514527797699,0.16149750351905823
5.22,0.2063889056444168,0.03954677656292915,0.07416684925556183,-0.19193650782108307,-0.9674904942512512,0.1685734987258911
5.24,0.20532366633415222,0.047003407031297684,0.08162347972393036,-0.19974449276924133,-0.9587064981460571,0.17320950329303741
5.26,0.20106273889541626,0.050199106335639954,0.08694964647293091,-0.20316050946712494,-0.9628545045852661,0.18272550404071808
5.28,0.1968017965555191,0.05659050494432449,0.0880148783326149,-0.2016965001821518,-0.9606585502624512,0.18641600012779236
5.3,0.19147562980651855,0.0555252730846405,0.08375394344329834,-0.20267249643802643,-0.9589504599571228,0.19324800372123718
5.32,0.18295377492904663,0.047003407031297684,0.08375394344329834,-0.203404501080513,-0.9535519480705261,0.19300399720668793
5.34,0.16164910793304443,0.050199106335639954,0.08375394344329834,-0.20364850759506226,-0.95306396484375,0.20398400723934174
5.36,0.15099677443504333,0.04593817517161369,0.08375394344329834,-0.20730850100517273,-0.9545280337333679,0.20837600529193878
5.38,0.14886631071567535,0.03954677656292915,0.0773625448346138,-0.20535649359226227,-0.9635864496231079,0.20349599421024323
5.4,0.12756165862083435,0.03209014609456062,0.05925358831882477,-0.20560051500797272,-0.964074432849884,0.20740000903606415
5.42,0.09986559301614761,0.029959678649902344,0.04753602296113968,-0.21584850549697876,-0.9645625352859497,0.20813198387622833
5.44,0.06258244067430496,0.027829213067889214,0.03155753016471863,-0.2126764953136444,-0.9621224999427795,0.21523848176002502
5.46,0.04340824484825134,0.026763979345560074,0.03262276202440262,-0.2202710062265396,-0.9516000151634216,0.2206064909696579
5.48,0.027429750189185143,0.019307348877191544,0.03262276202440262,-0.22002698481082916,-0.9503800272941589,0.22304651141166687
5.5,0.015712186694145203,0.012915950268507004,0.02623136341571808,-0.2197829931974411,-0.9486719965934753,0.2210945039987564
5.52,0.002929390873759985,0.011850717477500439,0.02303566411137581,-0.21905101835727692,-0.9479399919509888,0.22133849561214447
5.54,-0.010785484686493874,-0.0009320789249613881,0.01770949922502041,-0.22344301640987396,-0.9501360654830933,0.22548650205135345
5.56,-0.033155377954244614,-0.001997311832383275,0.011318100616335869,-0.22222298383712769,-0.9533079862594604,0.2269504964351654
5.58,-0.04593817517161369,-0.006258244160562754,0.009187635034322739,-0.221002995967865,-0.9552600383758545,0.22792649269104004
5.6,-0.05978620424866676,-0.007323476951569319,-0.0014646954368799925,-0.21804450452327728,-0.9533079862594604,0.22768250107765198
5.62,-0.07469946891069412,-0.011584409512579441,-0.006790860556066036,-0.22075900435447693,-0.9481840133666992,0.21865451335906982
5.64,-0.09174319356679916,-0.014780107885599136,-0.015312724746763706,-0.22075900435447693,-0.9481840133666992,0.21865451335906982
5.66,-0.1087869256734848,-0.019041040912270546,-0.02170412242412567,-0.22075900435447693,-0.9533079862594604,0.21572649478912354
5.68,-0.12156971544027328,-0.016910573467612267,-0.02703028731048107,-0.21929500997066498,-0.9584320187568665,0.2100839912891388
5.7,-0.1396786868572235,-0.019041040912270546,-0.03448691964149475,-0.22051499783992767,-0.9587064981460571,0.2105720043182373
5.72,-0.14926578104496002,-0.017975807189941406,-0.04407401755452156,-0.21929500997066498,-0.9628545045852661,0.2030079960823059
5.74,-0.16630950570106506,-0.022236740216612816,-0.05472634732723236,-0.21929500997066498,-0.9628545045852661,0.2030079960823059
5.76,-0.1833532303571701,-0.024367205798625946,-0.06005251035094261,-0.215116485953331,-0.9611465334892273,0.20056800544261932
5.78,-0.1950708031654358,-0.024367205798625946,-0.07070484012365341,-0.21365250647068024,-0.955016016960144,0.19788400828838348
5.8,-0.20252743363380432,-0.029693370684981346,-0.07709623873233795,-0.20730850100517273,-0.9520879983901978,0.1920280009508133
5.82,-0.20891882479190826,-0.031823836266994476,-0.07283531129360199,-0.20413649082183838,-0.9591944813728333,0.18418949842453003
5.84,-0.21957115828990936,-0.021171506494283676,-0.08029194176197052,-0.20413649082183838,-0.9591944813728333,0.18418949842453003
5.86,-0.22915825247764587,-0.020106272771954536,-0.08881380409002304,-0.20974849164485931,-0.964318573474884,0.17955349385738373
5.88,-0.25259336829185486,-0.020106272771954536,-0.10053136944770813,-0.20877251029014587,-0.9677344560623169,0.17638149857521057
5.9,-0.26431095600128174,-0.023301972076296806,-0.10479229688644409,-0.20389249920845032,-0.965538501739502,0.1680855005979538
5.92,-0.2675066292285919,-0.013714875094592571,-0.1037270650267601,-0.2021844983100891,-0.9652945399284363,0.16076549887657166
5.94,-0.26431095600128174,-0.0030625448562204838,-0.10159660130739212,-0.19437649846076965,-0.9677344560623169,0.15954549610614777
5.96,-0.26431095600128174,0.00226362026296556,-0.09946613013744354,-0.19803649187088013,-0.9564799666404724,0.15024299919605255
5.98,-0.26537618041038513,0.006524552125483751,-0.10798799991607666,-0.19068600237369537,-0.960170567035675,0.1412149965763092
6,-0.25152814388275146,0.00226362026296556,-0.10798799991607666,-0.1912045031785965,-0.9621224999427795,0.13560301065444946
6.02,-0.25046291947364807,-0.0009320789249613881,-0.10905323177576065,-0.17750999331474304,-0.9635864496231079,0.11922449618577957
6.04,-0.25046291947364807,-0.0030625448562204838,-0.1037270650267601,-0.17750999331474304,-0.9635864496231079,0.11922449618577957
6.06,-0.2579195499420166,-0.0009320789249613881,-0.11011846363544464,-0.1760459989309311,-0.9721264839172363,0.10873249918222427
6.08,-0.2675066292285919,0.00226362026296556,-0.10905323177576065,-0.16701799631118774,-0.9733465313911438,0.10678049176931381
6.1,-0.27389803528785706,0.011850717477500439,-0.1143793985247612,-0.16994599997997284,-0.9721264839172363,0.0945499986410141
6.12,-0.28455036878585815,0.016111649572849274,-0.1250317245721817,-0.17336200177669525,-0.976518452167511,0.09308599680662155
6.14,-0.2983984053134918,0.040612008422613144,-0.12716218829154968,-0.1736059933900833,-0.98066645860672,0.09015800058841705
6.16,-0.29413747787475586,0.043807707726955414,-0.12077079713344574,-0.173117995262146,-0.9755424857139587,0.0869860053062439
6.18,-0.2707023322582245,0.043807707726955414,-0.12929265201091766,-0.17384999990463257,-0.9670025110244751,0.076494000852108
6.2,-0.2259625494480133,0.033155377954244614,-0.13142313063144684,-0.15747149288654327,-0.9701744914054871,0.07280349731445312
6.22,-0.21744069457054138,0.018242115154862404,-0.11757509410381317,-0.14405149221420288,-0.9731025695800781,0.0735355019569397
6.24,-0.22276686131954193,0.00226362026296556,-0.09413997083902359,-0.13673150539398193,-0.9594384431838989,0.05938350409269333
6.26,-0.23235395550727844,-0.015845341607928276,-0.0611177459359169,-0.13673150539398193,-0.9594384431838989,0.05938350409269333
6.28,-0.22170162200927734,-0.021171506494283676,-0.05792204663157463,-0.13892750442028046,-0.9555040001869202,0.032756999135017395
6.3,-0.20039696991443634,-0.014780107885599136,-0.05366111174225807,-0.14429549872875214,-0.961390495300293,0.013938499614596367
6.32,-0.15778763592243195,0.0011983871227130294,-0.04726971685886383,-0.13352900743484497,-0.9760304689407349,0.0027145000640302896
6.34,-0.10133028775453568,0.012915950268507004,-0.04407401755452156,-0.13304099440574646,-0.9799345135688782,-0.0019214999629184604
6.36,-0.034220609813928604,0.029959678649902344,-0.04833494871854782,-0.13060098886489868,-0.9872849583625793,-0.005093500018119812
6.38,-0.00226362026296556,0.051264338195323944,-0.04833494871854782,-0.1399035006761551,-0.9638304710388184,0.008814500644803047
6.4,0.04021254554390907,0.07150376588106155,-0.02489982172846794,-0.1399035006761551,-0.9638304710388184,0.008814500644803047
6.42,0.08069140464067459,0.07150376588106155,0.000665770610794425,-0.14014749228954315,-0.9496479630470276,0.01613450050354004
6.44,0.16697527468204498,0.08215609937906265,0.02729659713804722,-0.13352900743484497,-0.942084014415741,0.023973001167178154
6.46,0.22662831842899323,0.08641702681779861,0.03688369318842888,-0.1374634951353073,-0.9616345167160034,0.03422100096940994
6.48,0.2511286735534668,0.09067796170711517,0.0347532257437706,-0.14258749783039093,-0.9762744903564453,0.04690900072455406
6.5,0.2287587970495224,0.0778951644897461,0.005991935729980469,-0.14649149775505066,-0.9926530122756958,0.060115497559309006
6.52,0.13927921652793884,0.066177599132061,-0.02276935614645481,-0.15869149565696716,-1.0097330808639526,0.07451150566339493
6.54,0.015712186694145203,0.023568280041217804,-0.06963960826396942,-0.15747149288654327,-1.010221004486084,0.08918200433254242
6.56,-0.07043853402137756,0.031024912372231483,-0.008921326138079166,-0.17165400087833405,-0.9921650290489197,0.0991860032081604
6.58,-0.05232957378029823,0.043807707726955414,-0.04087831825017929,-0.1491754949092865,-0.9506240487098694,0.08137399703264236
6.6,-0.0778951644897461,0.0011983871227130294,-0.1260969638824463,-0.15283550322055817,-0.9840825200080872,0.0676795020699501
6.62,-0.15991811454296112,0.0011983871227130294,-0.13248835504055023,-0.15015150606632233,-1.0011930465698242,0.060115497559309006
6.64,-0.21744069457054138,0.007589785382151604,-0.13887976109981537,-0.13941550254821777,-1.0111969709396362,0.06914350390434265
6.66,-0.23981058597564697,0.00226362026296556,-0.13781452178955078,-0.12572099268436432,-0.9950929880142212,0.03251300007104874
6.68,-0.20998406410217285,0.004394086077809334,-0.11970555782318115,-0.12572099268436432,-0.9950929880142212,0.03251300007104874
6.7,-0.15885287523269653,0.024633513763546944,-0.11544463038444519,-0.1101050078868866,-0.9816425442695618,0.01589049957692623
6.72,-0.12370018661022186,0.043807707726955414,-0.10798799991607666,-0.11693699657917023,-0.9789584875106812,0.008814500644803047
6.74,-0.11198262125253677,0.04913387447595596,-0.08561810106039047,-0.11230100691318512,-0.9733465313911438,0.003446500049903989
6.76,-0.08854749798774719,0.041677240282297134,-0.07390054315328598,-0.11352100223302841,-0.9687105417251587,0.01174249965697527
6.78,-0.12689588963985443,0.06298190355300903,-0.06324820965528488,-0.1147409975528717,-0.960170567035675,0.011254499666392803
6.8,-0.237680122256279,0.06830807030200958,-0.03874785080552101,-0.11083699762821198,-0.9684664607048035,0.022508999332785606
6.82,-0.47629231214523315,-0.014780107885599136,-0.005725627299398184,-0.09104250371456146,-0.9672464728355408,0.022753000259399414
6.84,-1.0322108268737793,-0.12449911236763,0.08481918275356293,-0.06831999868154526,-1.0248914957046509,0.0029585000593215227
6.86,-1.775610327720642,-0.7933322787284851,-0.03342168778181076,-0.07076000422239304,-1.0556659698486328,-0.008051999844610691
6.88,-1.1206251382827759,-0.9105079174041748,-0.09840089827775955,-0.11327699571847916,-1.0420019626617432,0.0014945000875741243
6.9,-0.057655736804008484,0.11824086308479309,-0.06963960826396942,-0.13795149326324463,-0.9047214388847351,-0.14826050400733948
6.92,0.47056668996810913,0.1608501821756363,0.02197043038904667,-0.14527150988578796,-0.8900509476661682,-0.12041400372982025
6.94,0.585611879825592,0.16617634892463684,0.05392742156982422,-0.14234349131584167,-0.8873670101165771,-0.1113554984331131
6.96,0.594133734703064,0.1587197184562683,0.02623136341571808,-0.1235249936580658,-0.9740785360336304,-0.07472499459981918
6.98,0.524893581867218,0.07363422960042953,-0.02170412242412567,-0.09909449517726898,-1.0153754949569702,-0.06057300046086311
7,0.3661738634109497,0.031024912372231483,-0.07496577501296997,-0.09909449517726898,-1.0153754949569702,-0.06057300046086311
7.02,0.1424749195575714,-0.050998032093048096,-0.06644391268491745,-0.08884650468826294,-1.0314794778823853,-0.04273049905896187
7.04,-0.05232957378029823,-0.09147688746452332,-0.0003994623839389533,-0.09543450176715851,-0.997776985168457,-0.023180000483989716
7.06,-0.07150376588106155,-0.1031944528222084,0.013448567129671574,-0.09616649895906448,-1.0036330223083496,-0.03760650008916855
7.08,-0.012915950268507004,-0.0925421193242073,0.03155753016471863,-0.09909449517726898,-0.9997289776802063,-0.04468249902129173
7.1,0.014646953903138638,-0.047802332788705826,0.04966649040579796,-0.12254900485277176,-0.9594384431838989,-0.05346650257706642
7.12,-0.036351077258586884,0.009720250964164734,0.015579032711684704,-0.12889300286769867,-0.9555040001869202,-0.048098500818014145
7.14,-0.04913387447595596,0.009720250964164734,-0.04513924941420555,-0.13770750164985657,-0.9943609833717346,-0.03955850005149841
7.16,-0.033155377954244614,0.067242830991745,-0.04726971685886383,-0.12328100204467773,-0.9818865656852722,-0.03025600127875805
7.18,-0.07150376588106155,0.09387365728616714,-0.1793586164712906,-0.11132500320672989,-0.9970450401306152,-0.036874499171972275
7.2,-0.07896039634943008,-0.09680305421352386,-0.09520520269870758,-0.16186349093914032,-0.9843264818191528,-0.0016775000840425491
7.22,-0.060851436108350754,-0.08402025699615479,-0.06005251035094261,-0.09909449517726898,-0.9037150144577026,-0.03467850014567375
7.24,-0.034220609813928604,-0.14260807633399963,-0.12290126085281372,-0.10080250352621078,-0.964318573474884,-0.05224649980664253
7.26,-0.3516600430011749,-0.03608476743102074,-0.04087831825017929,-0.10739050805568695,-0.9105775356292725,-0.06130500137805939
7.28,-2.0769381523132324,0.3632444739341736,-0.3061213493347168,-0.08274649828672409,-0.8937109708786011,-0.08890750259160995
7.3,-2.7926416397094727,-0.5302197337150574,-0.34553495049476624,-0.17799799144268036,-0.912529468536377,0.000030499999411404133
7.32,-1.745783805847168,0.29080861806869507,-0.17403244972229004,-0.07393199950456619,-1.0099769830703735,-0.2227414846420288
7.34,-0.8681648969650269,-0.052063263952732086,0.01983996480703354,-0.09982649981975555,-1.0637179613113403,-0.15850849449634552
7.36,-0.20785360038280487,-0.32263246178627014,0.10186290740966797,-0.037301499396562576,-1.0212315320968628,-0.198341503739357
7.38,0.5398068428039551,-0.4344819188117981,0.17536398768424988,-0.037301499396562576,-1.0212315320968628,-0.198341503739357
7.4,0.6824148893356323,-0.44300377368927,0.1306242048740387,-0.0001829999964684248,-0.9931409955024719,-0.2596465051174164
7.42,0.616370439529419,-0.3716331720352173,0.01664426550269127,-0.05490000173449516,-0.9300974607467651,-0.2584264874458313
7.44,0.5121107697486877,-0.2619141638278961,-0.02703028731048107,-0.11132500320672989,-0.8898069858551025,-0.21078549325466156
7.46,0.4290226101875305,-0.2097177505493164,-0.02489982172846794,-0.12206100672483444,-0.9435479640960693,-0.1941629946231842
7.48,0.3129121959209442,-0.1351514458656311,-0.004660394508391619,-0.129381000995636,-0.9821305274963379,-0.17659500241279602
7.5,0.2063889056444168,-0.11810771375894547,0.000665770610794425,-0.12669700384140015,-0.9909449815750122,-0.16631650924682617
7.52,0.0476691760122776,-0.020106272771954536,-0.02596505545079708,-0.12669700384140015,-0.9726144671440125,-0.16168050467967987
7.54,-0.10772168636322021,0.053394805639982224,0.012383334338665009,-0.11376499384641647,-0.9367160201072693,-0.12748999893665314
7.56,0.13714875280857086,0.031024912372231483,0.09440627694129944,-0.11376499384641647,-0.9367160201072693,-0.12748999893665314
7.58,0.26497671008110046,-0.011584409512579441,0.09547150880098343,-0.08003199845552444,-0.9484279751777649,-0.1335899978876114
7.6,0.26817241311073303,0.031024912372231483,0.05818835273385048,-0.089090496301651,-0.9604145288467407,-0.13041800260543823
7.62,0.1659100502729416,0.020372580736875534,-0.007856093347072601,-0.09470249712467194,-0.9648065567016602,-0.14435650408267975
7.64,-0.020372580736875534,0.03209014609456062,-0.03768261894583702,-0.11571700125932693,-0.948915958404541,-0.16021649539470673
7.66,-0.16950520873069763,0.027829213067889214,-0.02916075475513935,-0.13060098886489868,-0.9701744914054871,-0.15362849831581116
7.68,-0.2664414048194885,-0.08082455396652222,0.011318100616335869,-0.12279299646615982,-0.9738345146179199,-0.16802451014518738
7.7,-0.20359265804290771,-0.19267402589321136,0.06244928762316704,-0.11913299560546875,-0.9677344560623169,-0.1475284993648529
7.72,-0.07576470077037811,-0.1553908735513687,0.08481918275356293,-0.07539600133895874,-1.0099769830703735,-0.1655845046043396
7.74,0.07110430300235748,-0.06910699605941772,0.08055824786424637,-0.07539600133895874,-1.0099769830703735,-0.1655845046043396
7.76,0.08282186836004257,0.006524552125483751,0.03688369318842888,-0.09397049993276596,-0.9833505153656006,-0.16607250273227692
7.78,0.1009308323264122,0.06511236727237701,-0.02170412242412567,-0.10739050805568695,-0.9721264839172363,-0.1492365002632141
7.8,0.14140968024730682,0.06404713541269302,-0.03235645219683647,-0.12157300114631653,-0.9508680105209351,-0.14386850595474243
7.82,0.12756165862083435,0.047003407031297684,0.004926702938973904,-0.11352100223302841,-0.9535519480705261,-0.16046050190925598
7.84,0.11903978884220123,-0.012649642303586006,0.05925358831882477,-0.10153450071811676,-0.9875290393829346,-0.1609485000371933
7.86,0.05938674136996269,-0.08188978582620621,0.11358047276735306,-0.08762650191783905,-0.9672464728355408,-0.1492365002632141
7.88,0.05938674136996269,-0.14260807633399963,0.14873315393924713,-0.08762650191783905,-0.9672464728355408,-0.1492365002632141
7.9,0.09453943371772766,-0.1671084314584732,0.13275466859340668,-0.0920184999704361,-0.964318573474884,-0.15070050954818726
7.92,0.04234301298856735,-0.12449911236763,0.04327509179711342,-0.0920184999704361,-0.964318573474884,-0.15070050954818726
7.94,0.019973119720816612,-0.08934641629457474,0.02090519852936268,-0.13060098886489868,-0.9567239880561829,-0.13261400163173676
7.96,0.028494983911514282,-0.04993279650807381,0.01770949922502041,-0.14844349026679993,-0.9638304710388184,-0.13895800709724426
7.98,0.03914731368422508,0.006524552125483751,0.03794892504811287,-0.15649549663066864,-0.9691985249519348,-0.13456600904464722
8,0.028494983911514282,0.03209014609456062,0.05073172226548195,-0.1508834958076477,-0.9662705063819885,-0.13676200807094574
8.02,0.0370168462395668,0.050199106335639954,0.06031882017850876,-0.149663507938385,-0.9564799666404724,-0.14066599309444427
8.04,0.06151720881462097,0.07256899774074554,0.06884068250656128,-0.13795149326324463,-0.9528200030326843,-0.13944600522518158
8.06,0.08708280324935913,0.08322133123874664,0.08162347972393036,-0.14551550149917603,-0.9581879377365112,-0.12285400182008743
8.08,0.1126483902335167,0.09174319356679916,0.098667211830616,-0.14551550149917603,-0.9581879377365112,-0.12285400182008743
8.1,0.1339530497789383,0.08428656309843063,0.11784140020608902,-0.13474899530410767,-0.976518452167511,-0.123586006462574
8.12,0.164844810962677,0.07896039634943008,0.1316894292831421,-0.14234349131584167,-0.9838384985923767,-0.12431800365447998
8.14,0.22662831842899323,0.0555252730846405,0.13595037162303925,-0.13721950352191925,-0.9835944771766663,-0.11650999635457993
8.16,0.272433340549469,0.03848154470324516,0.13808083534240723,-0.13182100653648376,-0.9875290393829346,-0.12236599624156952
8.18,0.2905423045158386,0.034220609813928604,0.13808083534240723,-0.12742900848388672,-0.9782265424728394,-0.11208749562501907
8.2,0.3118469715118408,0.041677240282297134,0.13488513231277466,-0.13673150539398193,-0.9672464728355408,-0.10623149573802948
8.22,0.30971649289131165,0.054460037499666214,0.1316894292831421,-0.14600349962711334,-0.9645625352859497,-0.09891150146722794
8.24,0.2926727831363678,0.07043853402137756,0.12742850184440613,-0.15527549386024475,-0.9687105417251587,-0.09012749791145325
8.26,0.26710718870162964,0.07363422960042953,0.12316756695508957,-0.1584475040435791,-0.9662705063819885,-0.08204499632120132
8.28,0.24793298542499542,0.07150376588106155,0.12742850184440613,-0.1584475040435791,-0.9662705063819885,-0.08204499632120132
8.3,0.21491076052188873,0.06830807030200958,0.13381989300251007,-0.16579800844192505,-0.9726144671440125,-0.07350499927997589
8.32,0.1978670358657837,0.051264338195323944,0.13488513231277466,-0.1706780046224594,-0.9716385006904602,-0.059566497802734375
8.34,0.1872147023677826,0.036351077258586884,0.1412765234708786,-0.17262999713420868,-0.976518452167511,-0.054442498832941055
8.36,0.19041040539741516,0.015046416781842709,0.14340700209140778,-0.17262999713420868,-0.976518452167511,-0.054442498832941055
8.38,0.1957365721464157,-0.008388710208237171,0.1402112990617752,-0.1748259961605072,-0.9772504568099976,-0.045658502727746964
8.4,0.20212796330451965,-0.035019535571336746,0.12849372625350952,-0.1765339970588684,-0.9792025089263916,-0.0466344989836216
8.42,0.1978670358657837,-0.04993279650807381,0.11358047276735306,-0.17702199518680573,-0.9860649704933167,-0.0407785028219223
8.44,0.18188853561878204,-0.04993279650807381,0.09440627694129944,-0.1789740025997162,-0.9865529537200928,-0.032970499247312546
8.46,0.16058388352394104,-0.05632419511675835,0.08162347972393036,-0.1819019913673401,-0.9845705032348633,-0.02537599951028824
8.48,0.13714875280857086,-0.047802332788705826,0.06990591436624527,-0.1916925013065338,-0.9823745489120483,-0.019276000559329987
8.5,0.1126483902335167,-0.037150003015995026,0.06244928762316704,-0.1916925013065338,-0.9823745489120483,-0.019276000559329987
8.52,0.08495233207941055,-0.029693370684981346,0.05073172226548195,-0.1941325068473816,-0.976518452167511,-0.015371999703347683
8.54,0.07110430300235748,-0.020106272771954536,0.04220985993742943,-0.19730450212955475,-0.9735905528068542,-0.011467999778687954
8.56,0.0370168462395668,-0.006258244160562754,0.02623136341571808,-0.19364449381828308,-0.9745665192604065,-0.00878399983048439
8.58,0.025299284607172012,0.004394086077809334,0.01664426550269127,-0.19779250025749207,-0.9760304689407349,-0.0021654998417943716
8.6,-0.00226362026296556,0.018242115154862404,-0.0014646954368799925,-0.19608449935913086,-0.9823745489120483,-0.00045750002027489245
8.62,-0.022503048181533813,0.022503048181533813,-0.012117025442421436,-0.20291650295257568,-0.9843264818191528,-0.007320000324398279
8.64,-0.03848154470324516,0.026763979345560074,-0.02170412242412567,-0.20242848992347717,-0.984814465045929,-0.0031415000557899475
8.66,-0.05232957378029823,0.027829213067889214,-0.03661738336086273,-0.20194049179553986,-0.9831064939498901,-0.006831999868154526
8.68,-0.07043853402137756,0.034220609813928604,-0.04726971685886383,-0.1987685114145279,-0.9821305274963379,-0.009516000747680664
8.7,-0.09280842542648315,0.03954677656292915,-0.05579157918691635,-0.19632850587368011,-0.9833505153656006,-0.011223999783396721
8.72,-0.11624355614185333,0.03848154470324516,-0.06857437640428543,-0.19486449658870697,-0.9850584864616394,-0.020740000531077385
8.74,-0.15352670848369598,0.03528584539890289,-0.08561810106039047,-0.1887339949607849,-0.9801784753799438,-0.02366800047457218
8.76,-0.1737661361694336,0.03528584539890289,-0.0930747389793396,-0.18897800147533417,-0.982618510723114,-0.025619998574256897
8.78,-0.19294032454490662,0.024633513763546944,-0.10053136944770813,-0.1870260089635849,-0.978470504283905,-0.03147600218653679
8.8,-0.20891882479190826,0.018242115154862404,-0.10479229688644409,-0.18092601001262665,-0.9750545024871826,-0.036630500108003616
8.82,-0.22170162200927734,0.015046416781842709,-0.1143793985247612,-0.18092601001262665,-0.9750545024871826,-0.036630500108003616
8.84,-0.23235395550727844,0.011850717477500439,-0.11970555782318115,-0.17336200177669525,-0.9799345135688782,-0.04102249816060066
8.86,-0.24300628900527954,0.008655018173158169,-0.1250317245721817,-0.17043399810791016,-0.9796904921531677,-0.04883049800992012
8.88,-0.2557890713214874,0.0011983871227130294,-0.13035789132118225,-0.16994599997997284,-0.9770064353942871,-0.05102650076150894
8.9,-0.26537618041038513,-0.005193010903894901,-0.1346188187599182,-0.167262002825737,-0.9726144671440125,-0.058102499693632126
8.92,-0.278158962726593,-0.0009320789249613881,-0.13248835504055023,-0.1660420000553131,-0.9762744903564453,-0.059566497802734375
8.94,-0.28561559319496155,-0.001997311832383275,-0.1346188187599182,-0.16259551048278809,-0.9779825210571289,-0.07838500291109085
8.96,-0.2909417748451233,-0.004127778112888336,-0.1356840580701828,-0.1572275012731552,-0.9750545024871826,-0.07936099916696548
8.98,-0.28668084740638733,-0.0030625448562204838,-0.13355359435081482,-0.15454350411891937,-0.9772504568099976,-0.09110350161790848
9,-0.2920069992542267,-0.008388710208237171,-0.1250317245721817,-0.15161550045013428,-0.9770064353942871,-0.09378749877214432
9.02,-0.2898765504360199,-0.005193010903894901,-0.12290126085281372,-0.14941950142383575,-0.9728584289550781,-0.09964349865913391
9.04,-0.28668084740638733,0.00226362026296556,-0.12183602899312973,-0.14405149221420288,-0.9755424857139587,-0.10525550693273544
9.06,-0.28561559319496155,0.00226362026296556,-0.11650986224412918,-0.1403914988040924,-0.9738345146179199,-0.11480199545621872
9.08,-0.28241991996765137,0.007589785382151604,-0.1143793985247612,-0.13770750164985657,-0.9706624746322632,-0.12529399991035461
9.1,-0.2802894413471222,0.004394086077809334,-0.11224892735481262,-0.13673150539398193,-0.9713944792747498,-0.12993000447750092
9.12,-0.2685718834400177,0.0001331541279796511,-0.10479229688644409,-0.13182100653648376,-0.9704185128211975,-0.1352979987859726
9.14,-0.26218047738075256,0.0033288532868027687,-0.09627043455839157,-0.13084499537944794,-0.9718824625015259,-0.13895800709724426
9.16,-0.25046291947364807,-0.0009320789249613881,-0.09200949966907501,-0.12962500751018524,-0.964318573474884,-0.14826050400733948
9.18,-0.24087581038475037,-0.004127778112888336,-0.08881380409002304,-0.12572099268436432,-0.9635864496231079,-0.15240849554538727
9.2,-0.23128871619701385,-0.001997311832383275,-0.08348763734102249,-0.12010899931192398,-0.9569680094718933,-0.16046050190925598
9.22,-0.22383208572864532,-0.006258244160562754,-0.07496577501296997,-0.11376499384641647,-0.9628545045852661,-0.1650964915752411
9.24,-0.21850591897964478,-0.0009320789249613881,-0.06537867337465286,-0.11400900036096573,-0.9547720551490784,-0.18440300226211548
9.26,-0.20785360038280487,-0.004127778112888336,-0.04726971685886383,-0.12157300114631653,-0.96236652135849,-0.18586701154708862
9.28,-0.1940055638551712,-0.001997311832383275,-0.03768261894583702,-0.11815699189901352,-0.9555040001869202,-0.19147899746894836
9.3,-0.1822880059480667,-0.0030625448562204838,-0.02596505545079708,-0.11815699189901352,-0.9555040001869202,-0.19147899746894836
9.32,-0.1631138026714325,0.0001331541279796511,-0.02170412242412567,-0.12035300582647324,-0.9587064981460571,-0.20200151205062866
9.34,-0.151396244764328,-0.001997311832383275,-0.01957365684211254,-0.12035300582647324,-0.9587064981460571,-0.20200151205062866
9.36,-0.13541774451732635,-0.004127778112888336,-0.01957365684211254,-0.11522899568080902,-0.9523320198059082,-0.20346549153327942
9.38,-0.1205044835805893,-0.001997311832383275,-0.013182258233428001,-0.11522899568080902,-0.9523320198059082,-0.20346549153327942
9.4,-0.10559122264385223,-0.0009320789249613881,-0.008921326138079166,-0.1176690086722374,-0.9518439769744873,-0.20492950081825256
9.42,-0.09387365728616714,-0.0030625448562204838,-0.006790860556066036,-0.11522899568080902,-0.9547720551490784,-0.21029749512672424
9.44,-0.08109086751937866,0.0011983871227130294,-0.005725627299398184,-0.1147409975528717,-0.9472079873085022,-0.2059054970741272
9.46,-0.07576470077037811,0.005459319334477186,-0.0014646954368799925,-0.11425299942493439,-0.9455000758171082,-0.2122495025396347
9.48,-0.06404713541269302,0.008655018173158169,0.0038614696823060513,-0.11571700125932693,-0.94623202085495,-0.2151774913072586
9.5,-0.053394805639982224,0.012915950268507004,0.0027962366584688425,-0.11059299111366272,-0.9469640254974365,-0.21761751174926758
9.52,-0.03848154470324516,0.008655018173158169,0.009187635034322739,-0.11156899482011795,-0.9511120319366455,-0.21883749961853027
9.54,-0.023568280041217804,0.006524552125483751,0.004926702938973904,-0.11278900504112244,-0.95306396484375,-0.21542151272296906
9.56,-0.006524552125483751,0.007589785382151604,0.009187635034322739,-0.11278900504112244,-0.95306396484375,-0.21542151272296906
9.58,0.002929390873759985,0.005459319334477186,0.010252867825329304,-0.1130329966545105,-0.9481840133666992,-0.2215214967727661
9.6,0.021038351580500603,-0.0030625448562204838,0.014513799920678139,-0.11571700125932693,-0.948915958404541,-0.2151774913072586
9.62,0.028494983911514282,0.0011983871227130294,0.013448567129671574,-0.11571700125932693,-0.948915958404541,-0.2151774913072586
9.64,0.04021254554390907,0.0001331541279796511,0.014513799920678139,-0.11449700593948364,-0.9555040001869202,-0.21542151272296906
9.66,0.04873441159725189,0.0001331541279796511,0.01664426550269127,-0.1130329966545105,-0.9518439769744873,-0.21493349969387054
9.68,0.05406057462096214,0.0011983871227130294,0.02090519852936268,-0.11693699657917023,-0.9513559937477112,-0.21590949594974518
9.7,0.06364767253398895,-0.005193010903894901,0.02729659713804722,-0.11864499747753143,-0.9537959694862366,-0.21029749512672424
9.72,0.07536523789167404,-0.0009320789249613881,0.02836182899773121,-0.11864499747753143,-0.9537959694862366,-0.21029749512672424
9.74,0.08708280324935913,0.0001331541279796511,0.03155753016471863,-0.11718100309371948,-0.95306396484375,-0.21029749512672424
9.76,0.09347419440746307,-0.0030625448562204838,0.03368799388408661,-0.11522899568080902,-0.9537959694862366,-0.21005350351333618
9.78,0.10306129604578018,-0.0009320789249613881,0.03262276202440262,-0.11693699657917023,-0.9567239880561829,-0.20370949804782867
9.8,0.10838746279478073,-0.0009320789249613881,0.03581846132874489,-0.11693699657917023,-0.9567239880561829,-0.20370949804782867
9.82,0.11371362209320068,0.00226362026296556,0.04114462435245514,-0.12742900848388672,-0.9535519480705261,-0.204197496175766
9.84,0.11903978884220123,0.005459319334477186,0.04434032365679741,-0.12328100204467773,-0.9567239880561829,-0.20053750276565552
9.86,0.12436595559120178,0.006524552125483751,0.04753602296113968,-0.1264529973268509,-0.9557480216026306,-0.19318699836730957
9.88,0.13075734674930573,0.011850717477500439,0.04860125854611397,-0.1269410103559494,-0.9621224999427795,-0.19269900023937225
9.9,0.1318225860595703,0.007589785382151604,0.05392742156982422,-0.1252330094575882,-0.957211971282959,-0.19172300398349762
9.92,0.13608351349830627,0.006524552125483751,0.05712312087416649,-0.12620899081230164,-0.9633424878120422,-0.18806301057338715
9.94,0.1435401439666748,0.004394086077809334,0.06244928762316704,-0.12840498983860016,-0.9542840719223022,-0.18464699387550354
9.96,0.14673584699630737,0.005459319334477186,0.06990591436624527,-0.12962500751018524,-0.964318573474884,-0.17415499687194824
9.98,0.15738818049430847,0.005459319334477186,0.07203638553619385,-0.12669700384140015,-0.9650505185127258,-0.17073900997638702
10,0.16164910793304443,0.005459319334477186,0.07310161739587784,-0.13230900466442108,-0.9670025110244751,-0.1773270070552826
10.02,0.16164910793304443,0.0011983871227130294,0.07203638553619385,-0.13474899530410767,-0.9684664607048035,-0.17195899784564972
10.04,0.16377957165241241,0.00226362026296556,0.07203638553619385,-0.13060098886489868,-0.9660264849662781,-0.16607250273227692
10.06,0.16058388352394104,0.0011983871227130294,0.07629731297492981,-0.14063550531864166,-0.9677344560623169,-0.16363251209259033
10.08,0.15845340490341187,0.0011983871227130294,0.07523208111524582,-0.1420994997024536,-0.9672464728355408,-0.15582449734210968
10.1,0.1552577167749405,0.0001331541279796511,0.0773625448346138,-0.14136749505996704,-0.9709064960479736,-0.14728449285030365
10.12,0.1541924774646759,0.0011983871227130294,0.07097115367650986,-0.14136749505996704,-0.9721264839172363,-0.14508849382400513
10.14,0.1541924774646759,0.005459319334477186,0.0667102187871933,-0.14649149775505066,-0.9726144671440125,-0.14115400612354279
10.16,0.14886631071567535,0.0033288532868027687,0.06244928762316704,-0.1479555070400238,-0.9691985249519348,-0.1382260024547577
10.18,0.14140968024730682,0.0001331541279796511,0.06457975506782532,-0.1508834958076477,-0.9691985249519348,-0.13383398950099945
10.2,0.13501828908920288,0.0001331541279796511,0.06351451575756073,-0.1508834958076477,-0.9691985249519348,-0.13383398950099945
10.22,0.13075734674930573,0.00226362026296556,0.05925358831882477,-0.1503954976797104,-0.9718824625015259,-0.12675799429416656
10.24,0.11690932512283325,0.006524552125483751,0.05818835273385048,-0.15307949483394623,-0.9718824625015259,-0.12700200080871582
10.26,0.10199606418609619,0.004394086077809334,0.05392742156982422,-0.15429949760437012,-0.9811544418334961,-0.12309800833463669
10.28,0.09240896254777908,0.008655018173158169,0.0454055592417717,-0.1584475040435791,-0.9774945378303528,-0.11821800470352173
10.3,0.07856093347072601,0.006524552125483751,0.03794892504811287,-0.15942350029945374,-0.982618510723114,-0.11159949749708176
10.32,0.06684337556362152,0.009720250964164734,0.02410089783370495,-0.15942350029945374,-0.982618510723114,-0.11159949749708176
10.34,0.05193011090159416,0.010785484686493874,0.01983996480703354,-0.15698349475860596,-0.9850584864616394,-0.11111149191856384
10.36,0.028494983911514282,0.011850717477500439,0.008122402243316174,-0.15698349475860596,-0.9850584864616394,-0.11111149191856384
10.38,0.015712186694145203,0.011850717477500439,0.0017310036346316338,-0.15698349475860596,-0.9792025089263916,-0.10525550693273544
10.4,0.0061250897124409676,0.011850717477500439,-0.0025299284607172012,-0.15698349475860596,-0.9792025089263916,-0.10525550693273544
10.42,-0.011850717477500439,0.013981183059513569,-0.008921326138079166,-0.15991149842739105,-0.9777385592460632,-0.10183950513601303
10.44,-0.021437814459204674,0.012915950268507004,-0.011051792651414871,-0.15917949378490448,-0.9750545024871826,-0.10647550225257874
10.46,-0.037416309118270874,0.011850717477500439,-0.009986559860408306,-0.15991149842739105,-0.972370445728302,-0.10964750498533249
10.48,-0.04913387447595596,0.009720250964164734,-0.015312724746763706,-0.15600749850273132,-0.9774945378303528,-0.10501150041818619
10.5,-0.058720968663692474,0.010785484686493874,-0.02170412242412567,-0.15747149288654327,-0.98066645860672,-0.108427494764328
10.52,-0.07043853402137756,0.009720250964164734,-0.03129122033715248,-0.15747149288654327,-0.9750545024871826,-0.11086750030517578
10.54,-0.0778951644897461,0.005459319334477186,-0.03768261894583702,-0.14941950142383575,-0.9750545024871826,-0.11504600197076797
10.56,-0.08854749798774719,0.008655018173158169,-0.04194355010986328,-0.15185950696468353,-0.9738345146179199,-0.11821800470352173
10.58,-0.10026505589485168,0.006524552125483751,-0.04300878196954727,-0.14990749955177307,-0.972370445728302,-0.12114600092172623
10.6,-0.11091738939285278,0.005459319334477186,-0.04407401755452156,-0.15185950696468353,-0.9731025695800781,-0.12138999253511429
10.62,-0.11517832428216934,0.005459319334477186,-0.04620448127388954,-0.14697949588298798,-0.9738345146179199,-0.12261000275611877
10.64,-0.11730878800153732,0.009720250964164734,-0.05366111174225807,-0.14868749678134918,-0.9718824625015259,-0.12626999616622925
10.66,-0.12156971544027328,0.005459319334477186,-0.05579157918691635,-0.14893148839473724,-0.9706624746322632,-0.13090600073337555
10.68,-0.12796111404895782,0.005459319334477186,-0.05579157918691635,-0.149663507938385,-0.9645625352859497,-0.1311500072479248
10.7,-0.1300915777683258,0.007589785382151604,-0.05792204663157463,-0.1462474912405014,-0.9684664607048035,-0.13603000342845917
10.72,-0.13222205638885498,0.011850717477500439,-0.05685681104660034,-0.14258749783039093,-0.972370445728302,-0.14216050505638123
10.74,-0.1311568170785904,0.008655018173158169,-0.05685681104660034,-0.14405149221420288,-0.9677344560623169,-0.13651800155639648
10.76,-0.13648298382759094,0.010785484686493874,-0.0611177459359169,-0.13965949416160583,-0.968222439289093,-0.15070050954818726
10.78,-0.13754820823669434,0.009720250964164734,-0.06324820965528488,-0.13474899530410767,-0.9689545631408691,-0.15289650857448578
10.8,-0.13861344754695892,0.008655018173158169,-0.06537867337465286,-0.13673150539398193,-0.9704185128211975,-0.15704450011253357
10.82,-0.14287437498569489,0.013981183059513569,-0.06750914454460144,-0.13255299627780914,-0.9674904942512512,-0.1546044945716858
10.84,-0.1418091505765915,0.011850717477500439,-0.06644391268491745,-0.13304099440574646,-0.966514527797699,-0.16753649711608887
10.86,-0.1407439112663269,0.009720250964164734,-0.06431344151496887,-0.13206499814987183,-0.9701744914054871,-0.16290049254894257
10.88,-0.1407439112663269,0.008655018173158169,-0.06750914454460144,-0.13035699725151062,-0.965538501739502,-0.1672924906015396
10.9,-0.13861344754695892,0.013981183059513569,-0.06963960826396942,-0.1264529973268509,-0.9670025110244751,-0.1726910024881363
10.92,-0.13648298382759094,0.017176883295178413,-0.06644391268491745,-0.12864899635314941,-0.9662705063819885,-0.1807429939508438
10.94,-0.1300915777683258,0.016111649572849274,-0.06431344151496887,-0.12108500301837921,-0.9628545045852661,-0.17513100802898407
10.96,-0.12263495475053787,0.011850717477500439,-0.06218297779560089,-0.11864499747753143,-0.9648065567016602,-0.17366699874401093
10.98,-0.11517832428216934,0.008655018173158169,-0.05472634732723236,-0.12181700021028519,-0.9587064981460571,-0.18513499200344086
11,-0.10985215753316879,0.005459319334477186,-0.04940018057823181,-0.12181700021028519,-0.9587064981460571,-0.18513499200344086
11.02,-0.10133028775453568,0.0011983871227130294,-0.04726971685886383,-0.11718100309371948,-0.9596824645996094,-0.19440700113773346
11.04,-0.10026505589485168,0.0001331541279796511,-0.04833494871854782,-0.11620499938726425,-0.9591944813728333,-0.1988295018672943
11.06,-0.09493889659643173,0.004394086077809334,-0.04407401755452156,-0.11522899568080902,-0.9591944813728333,-0.20053750276565552
11.08,-0.09067796170711517,0.006524552125483751,-0.03555215150117874,-0.12084099650382996,-0.9616345167160034,-0.19956150650978088
11.1,-0.0778951644897461,0.004394086077809334,-0.03022598661482334,-0.12084099650382996,-0.9616345167160034,-0.19956150650978088
11.12,-0.07363422960042953,0.0033288532868027687,-0.02276935614645481,-0.11278900504112244,-0.9562360048294067,-0.19562700390815735
11.14,-0.06404713541269302,-0.001997311832383275,-0.02063889056444168,-0.10986100137233734,-0.9523320198059082,-0.20663751661777496
11.16,-0.05659050494432449,0.004394086077809334,-0.01957365684211254,-0.10986100137233734,-0.9523320198059082,-0.20663751661777496
11.18,-0.044872939586639404,0.004394086077809334,-0.0185084231197834,-0.10937299579381943,-0.9555040001869202,-0.20858949422836304
11.2,-0.040612008422613144,0.00226362026296556,-0.012117025442421436,-0.11205700039863586,-0.9525759816169739,-0.2054174840450287
11.22,-0.031024912372231483,0.004394086077809334,-0.005725627299398184,-0.11254499852657318,-0.9567239880561829,-0.20858949422836304
11.24,-0.019307348877191544,0.005459319334477186,-0.0014646954368799925,-0.1130329966545105,-0.9535519480705261,-0.20273350179195404
11.26,-0.007589785382151604,0.005459319334477186,0.000665770610794425,-0.11083699762821198,-0.9545280337333679,-0.20834550261497498
11.28,-0.0011983871227130294,0.0033288532868027687,0.0027962366584688425,-0.11376499384641647,-0.9545280337333679,-0.20834550261497498
11.3,0.0050598569214344025,0.006524552125483751,0.005991935729980469,-0.1147409975528717,-0.9606585502624512,-0.2117614895105362
11.32,0.014646953903138638,0.006524552125483751,0.010252867825329304,-0.1147409975528717,-0.9545280337333679,-0.2076134830713272
11.34,0.022103585302829742,0.00226362026296556,0.013448567129671574,-0.1101050078868866,-0.95306396484375,-0.204197496175766
11.36,0.03808208182454109,0.0033288532868027687,0.013448567129671574,-0.1101050078868866,-0.95306396484375,-0.204197496175766
11.38,0.03914731368422508,0.00226362026296556,0.015579032711684704,-0.1118130013346672,-0.9540400505065918,-0.20248949527740479
11.4,0.05193011090159416,0.0001331541279796511,0.01664426550269127,-0.11108099669218063,-0.9501360654830933,-0.20444151759147644
11.42,0.0583215095102787,0.0033288532868027687,0.01983996480703354,-0.1130329966545105,-0.9567239880561829,-0.20346549153327942
11.44,0.06151720881462097,0.006524552125483751,0.02410089783370495,-0.11278900504112244,-0.9589504599571228,-0.20614950358867645
11.46,0.06471290439367294,0.004394086077809334,0.02303566411137581,-0.11156899482011795,-0.9569680094718933,-0.20200151205062866
11.48,0.07749570161104202,0.0011983871227130294,0.02942706272006035,-0.11059299111366272,-0.9523320198059082,-0.1988295018672943
11.5,0.07962616533041,-0.001997311832383275,0.03155753016471863,-0.1130329966545105,-0.9591944813728333,-0.2017575055360794
11.52,0.08388710021972656,-0.001997311832383275,0.0347532257437706,-0.11327699571847916,-0.9581879377365112,-0.1958709955215454
11.54,0.09560466557741165,-0.004127778112888336,0.0347532257437706,-0.11108099669218063,-0.9594384431838989,-0.19489499926567078
11.56,0.10306129604578018,-0.0009320789249613881,0.03688369318842888,-0.11449700593948364,-0.9609025120735168,-0.1953829973936081
11.58,0.11051792651414871,-0.006258244160562754,0.04007939249277115,-0.11888900399208069,-0.959926426410675,-0.1900150030851364
11.6,0.11371362209320068,-0.005193010903894901,0.0454055592417717,-0.1205969974398613,-0.9596824645996094,-0.18806301057338715
11.62,0.11903978884220123,-0.007323476951569319,0.04434032365679741,-0.1205969974398613,-0.9589504599571228,-0.18220700323581696
11.64,0.12969212234020233,-0.005193010903894901,0.04860125854611397,-0.119377002120018,-0.9609025120735168,-0.17659500241279602
11.66,0.13501828908920288,-0.006258244160562754,0.05499265342950821,-0.11791300028562546,-0.9604145288467407,-0.1773270070552826
11.68,0.13821399211883545,0.0011983871227130294,0.0560578890144825,-0.12279299646615982,-0.9626104831695557,-0.17415499687194824
11.7,0.1424749195575714,-0.0030625448562204838,0.05818835273385048,-0.12303700298070908,-0.964318573474884,-0.1714709997177124
11.72,0.14567062258720398,-0.0009320789249613881,0.06244928762316704,-0.12596499919891357,-0.9648065567016602,-0.1655845046043396
11.74,0.15099677443504333,-0.0009320789249613881,0.06351451575756073,-0.129381000995636,-0.9611465334892273,-0.16582851111888885
11.76,0.15206201374530792,0.00226362026296556,0.06457975506782532,-0.12913700938224792,-0.966514527797699,-0.1621685028076172
11.78,0.15632294118404388,0.0001331541279796511,0.06777545064687729,-0.12864899635314941,-0.9650505185127258,-0.16070449352264404
11.8,0.15951864421367645,-0.0009320789249613881,0.06564498692750931,-0.13182100653648376,-0.9660264849662781,-0.15314050018787384
11.82,0.15738818049430847,0.005459319334477186,0.06990591436624527,-0.13133300840854645,-0.964074432849884,-0.1463085114955902
11.84,0.15206201374530792,0.0001331541279796511,0.06777545064687729,-0.13648749887943268,-0.9684664607048035,-0.13773800432682037
11.86,0.15206201374530792,0.0011983871227130294,0.06564498692750931,-0.1362130045890808,-0.9721264839172363,-0.13749399781227112
11.88,0.14673584699630737,0.0001331541279796511,0.06884068250656128,-0.1362130045890808,-0.9721264839172363,-0.13749399781227112
11.9,0.13821399211883545,0.0011983871227130294,0.06138405203819275,-0.14234349131584167,-0.9731025695800781,-0.1277339905500412
11.92,0.13501828908920288,0.007589785382151604,0.06138405203819275,-0.14600349962711334,-0.9733465313911438,-0.12065799534320831
11.94,0.1318225860595703,0.00226362026296556,0.06031882017850876,-0.14649149775505066,-0.9726144671440125,-0.11699799448251724
11.96,0.12436595559120178,0.005459319334477186,0.0560578890144825,-0.14478349685668945,-0.9748104810714722,-0.11504600197076797
11.98,0.1115831583738327,0.006524552125483751,0.05392742156982422,-0.1462474912405014,-0.9752985239028931,-0.11626599729061127
12,0.10306129604578018,0.0033288532868027687,0.05073172226548195,-0.15015150606632233,-0.9777385592460632,-0.1113554984331131
12.02,0.09134373068809509,0.0033288532868027687,0.04647079110145569,-0.14844349026679993,-0.978470504283905,-0.11330750584602356
12.04,0.08069140464067459,0.0011983871227130294,0.04007939249277115,-0.15161550045013428,-0.9804224967956543,-0.10232749581336975
12.06,0.07216953486204147,-0.0030625448562204838,0.03581846132874489,-0.1550315022468567,-0.982618510723114,-0.1101355031132698
12.08,0.06364767253398895,-0.0009320789249613881,0.02836182899773121,-0.14893148839473724,-0.9770064353942871,-0.10501150041818619
12.1,0.04979964345693588,0.004394086077809334,0.02197043038904667,-0.15137150883674622,-0.974322497844696,-0.09964349865913391
12.12,0.03488638252019882,0.0033288532868027687,0.01983996480703354,-0.1550315022468567,-0.9767624735832214,-0.10013149678707123
12.14,0.018907885998487473,0.0011983871227130294,0.009187635034322739,-0.15405550599098206,-0.9818865656852722,-0.09988749772310257
12.16,0.0050598569214344025,0.0011983871227130294,0.0027962366584688425,-0.15185950696468353,-0.979446530342102,-0.09720350056886673
12.18,-0.007589785382151604,0.006524552125483751,-0.007856093347072601,-0.15356750786304474,-0.9796904921531677,-0.0991555005311966
12.2,-0.022503048181533813,0.008655018173158169,-0.006790860556066036,-0.15698349475860596,-0.9757865071296692,-0.09817949682474136
12.22,-0.031024912372231483,0.011850717477500439,-0.015312724746763706,-0.15576350688934326,-0.9772504568099976,-0.0979354977607727
12.24,-0.040612008422613144,0.011850717477500439,-0.01637795753777027,-0.15454350411891937,-0.9792025089263916,-0.09744749963283539
12.26,-0.04593817517161369,0.015046416781842709,-0.02170412242412567,-0.15356750786304474,-0.9787145256996155,-0.0979354977607727
12.28,-0.05978620424866676,0.013981183059513569,-0.02596505545079708,-0.15795950591564178,-0.9755424857139587,-0.10281550139188766
12.3,-0.0768299326300621,0.016111649572849274,-0.02916075475513935,-0.15795950591564178,-0.9755424857139587,-0.10281550139188766
12.32,-0.08535179495811462,0.016111649572849274,-0.03448691964149475,-0.1538114994764328,-0.9801784753799438,-0.10208350419998169
12.34,-0.09280842542648315,0.018242115154862404,-0.03555215150117874,-0.15405550599098206,-0.9774945378303528,-0.10281550139188766
12.36,-0.0981345921754837,0.013981183059513569,-0.04194355010986328,-0.14551550149917603,-0.9757865071296692,-0.10793950408697128
12.38,-0.10346075892448425,0.016111649572849274,-0.04620448127388954,-0.1474675089120865,-0.9774945378303528,-0.10940349847078323
12.4,-0.11304785311222076,0.012915950268507004,-0.05153064802289009,-0.14722350239753723,-0.9760304689407349,-0.11403950303792953
12.42,-0.12156971544027328,0.011850717477500439,-0.05153064802289009,-0.14429549872875214,-0.9740785360336304,-0.1142834946513176
12.44,-0.12796111404895782,0.012915950268507004,-0.05472634732723236,-0.14429549872875214,-0.972370445728302,-0.12090200930833817
12.46,-0.13328728079795837,0.009720250964164734,-0.05685681104660034,-0.1479555070400238,-0.9726144671440125,-0.12407399713993073
12.48,-0.14607007801532745,0.009720250964164734,-0.05579157918691635,-0.13941550254821777,-0.9760304689407349,-0.1260260045528412
12.5,-0.151396244764328,0.010785484686493874,-0.05898727849125862,-0.14014749228954315,-0.9757865071296692,-0.12553799152374268
12.52,-0.1524614691734314,0.012915950268507004,-0.06218297779560089,-0.1362130045890808,-0.9718824625015259,-0.1311500072479248
12.54,-0.15352670848369598,0.010785484686493874,-0.06537867337465286,-0.13596899807453156,-0.972370445728302,-0.13334600627422333
12.56,-0.15459194779396057,0.006524552125483751,-0.06537867337465286,-0.13770750164985657,-0.9728584289550781,-0.1357859969139099
12.58,-0.15672241151332855,0.010785484686493874,-0.06537867337465286,-0.13206499814987183,-0.9711505174636841,-0.1404220014810562
12.6,-0.15565717220306396,0.008655018173158169,-0.06537867337465286,-0.1345050036907196,-0.9687105417251587,-0.14435650408267975
12.62,-0.15352670848369598,0.005459319334477186,-0.05898727849125862,-0.12913700938224792,-0.9670025110244751,-0.15021249651908875
12.64,-0.15352670848369598,0.004394086077809334,-0.05792204663157463,-0.12742900848388672,-0.9691985249519348,-0.15118850767612457
12.66,-0.15352670848369598,0.009720250964164734,-0.06537867337465286,-0.1298689991235733,-0.9694425463676453,-0.15777650475502014
12.68,-0.151396244764328,0.004394086077809334,-0.05898727849125862,-0.12425700575113297,-0.968222439289093,-0.16119250655174255
12.7,-0.14500483870506287,0.012915950268507004,-0.05153064802289009,-0.1223049983382225,-0.9684664607048035,-0.16656050086021423
12.72,-0.14500483870506287,0.008655018173158169,-0.04726971685886383,-0.11962100118398666,-0.9667584896087646,-0.17537499964237213
12.74,-0.14500483870506287,0.007589785382151604,-0.04833494871854782,-0.11547300964593887,-0.965538501739502,-0.1790349930524826
12.76,-0.1396786868572235,0.012915950268507004,-0.04620448127388954,-0.11547300964593887,-0.965538501739502,-0.1790349930524826
12.78,-0.13222205638885498,0.006524552125483751,-0.04194355010986328,-0.11156899482011795,-0.9652945399284363,-0.18049900233745575
12.8,-0.11837401986122131,0.009720250964164734,-0.03874785080552101,-0.10690250247716904,-0.9704185128211975,-0.18464699387550354
12.82,-0.11091738939285278,0.00226362026296556,-0.03448691964149475,-0.1130329966545105,-0.9574559926986694,-0.1848910003900528
12.84,-0.10985215753316879,0.0011983871227130294,-0.03022598661482334,-0.11278900504112244,-0.9594384431838989,-0.1953829973936081
12.86,-0.10665645450353622,0.0001331541279796511,-0.01744319126009941,-0.11352100223302841,-0.957211971282959,-0.19391900300979614
12.88,-0.0991998240351677,-0.005193010903894901,-0.01957365684211254,-0.1101050078868866,-0.9584320187568665,-0.19513900578022003
12.9,-0.09493889659643173,-0.001997311832383275,-0.01637795753777027,-0.1118130013346672,-0.9576999545097351,-0.20444151759147644
12.92,-0.08641702681779861,-0.0030625448562204838,-0.014247491955757141,-0.11156899482011795,-0.9596824645996094,-0.20273350179195404
12.94,-0.07896039634943008,-0.007323476951569319,-0.013182258233428001,-0.11205700039863586,-0.9545280337333679,-0.20102550089359283
12.96,-0.06830807030200958,-0.007323476951569319,-0.007856093347072601,-0.11498500406742096,-0.9535519480705261,-0.20370949804782867
12.98,-0.06404713541269302,-0.007323476951569319,-0.0003994623839389533,-0.1176690086722374,-0.9481840133666992,-0.20980948209762573
13,-0.054460037499666214,-0.004127778112888336,0.0038614696823060513,-0.11400900036096573,-0.95306396484375,-0.20639349520206451
13.02,-0.04593817517161369,-0.001997311832383275,0.004926702938973904,-0.11132500320672989,-0.9555040001869202,-0.20639349520206451
13.04,-0.036351077258586884,-0.0030625448562204838,0.004926702938973904,-0.11156899482011795,-0.9508680105209351,-0.211029514670372
13.06,-0.029959678649902344,-0.001997311832383275,0.008122402243316174,-0.11449700593948364,-0.9525759816169739,-0.20858949422836304
13.08,-0.021437814459204674,-0.0009320789249613881,0.008122402243316174,-0.11132500320672989,-0.9513559937477112,-0.20980948209762573
13.1,-0.009720250964164734,0.0033288532868027687,0.010252867825329304,-0.11669300496578217,-0.9533079862594604,-0.2088335156440735
13.12,-0.006524552125483751,0.005459319334477186,0.014513799920678139,-0.1130329966545105,-0.9555040001869202,-0.20858949422836304
13.14,0.002929390873759985,0.00226362026296556,0.01770949922502041,-0.11278900504112244,-0.9540400505065918,-0.21200551092624664
13.16,0.015712186694145203,0.007589785382151604,0.013448567129671574,-0.11522899568080902,-0.9547720551490784,-0.21005350351333618
13.18,0.021038351580500603,0.0033288532868027687,0.015579032711684704,-0.11230100691318512,-0.9555040001869202,-0.20907750725746155
13.2,0.024234050884842873,0.005459319334477186,0.01770949922502041,-0.1147409975528717,-0.9520879983901978,-0.21127350628376007
13.22,0.028494983911514282,0.007589785382151604,0.02090519852936268,-0.1147409975528717,-0.9535519480705261,-0.20736949145793915
13.24,0.03275591507554054,0.007589785382151604,0.02410089783370495,-0.11449700593948364,-0.9555040001869202,-0.2088335156440735
13.26,0.03914731368422508,0.004394086077809334,0.02516612969338894,-0.10861050337553024,-0.9638304710388184,-0.21005350351333618
13.28,0.04660394415259361,0.004394086077809334,0.02516612969338894,-0.11254499852657318,-0.9576999545097351,-0.20858949422836304
13.3,0.05193011090159416,0.0011983871227130294,0.02942706272006035,-0.1147409975528717,-0.9545280337333679,-0.20663751661777496
13.32,0.05938674136996269,-0.0009320789249613881,0.02942706272006035,-0.11888900399208069,-0.9584320187568665,-0.2054174840450287
13.34,0.06364767253398895,0.0011983871227130294,0.03155753016471863,-0.12132899463176727,-0.9591944813728333,-0.20395350456237793
13.36,0.06471290439367294,-0.0009320789249613881,0.03368799388408661,-0.115960992872715,-0.9584320187568665,-0.20736949145793915
13.38,0.07216953486204147,-0.0030625448562204838,0.03262276202440262,-0.11815699189901352,-0.9591944813728333,-0.1988295018672943
13.4,0.07110430300235748,-0.0009320789249613881,0.03688369318842888,-0.12035300582647324,-0.9569680094718933,-0.20151349902153015
13.42,0.07536523789167404,-0.001997311832383275,0.03688369318842888,-0.12303700298070908,-0.9584320187568665,-0.1958709955215454
13.44,0.07749570161104202,0.0011983871227130294,0.03688369318842888,-0.12035300582647324,-0.9574559926986694,-0.19785350561141968
13.46,0.08175663650035858,-0.001997311832383275,0.03688369318842888,-0.12035300582647324,-0.9535519480705261,-0.19465100765228271
13.48,0.08708280324935913,0.004394086077809334,0.04114462435245514,-0.12328100204467773,-0.955016016960144,-0.19391900300979614
13.5,0.09240896254777908,0.00226362026296556,0.04860125854611397,-0.1269410103559494,-0.9564799666404724,-0.1900150030851364
13.52,0.09986559301614761,0.0033288532868027687,0.05073172226548195,-0.12669700384140015,-0.9587064981460571,-0.186599001288414
13.54,0.09986559301614761,0.0011983871227130294,0.05392742156982422,-0.12108500301837921,-0.9626104831695557,-0.1878190040588379
13.56,0.10519175976514816,0.0001331541279796511,0.05392742156982422,-0.12791700661182404,-0.964074432849884,-0.18806301057338715
13.58,0.10625699162483215,-0.0030625448562204838,0.05073172226548195,-0.12889300286769867,-0.964074432849884,-0.17952300608158112
13.6,0.10412652790546417,0.0001331541279796511,0.05286218971014023,-0.12718500196933746,-0.9648065567016602,-0.1785469949245453
13.62,0.10199606418609619,0.0001331541279796511,0.0560578890144825,-0.13084499537944794,-0.9652945399284363,-0.17635099589824677
13.64,0.1009308323264122,0.0011983871227130294,0.05392742156982422,-0.13474899530410767,-0.9684664607048035,-0.17122700810432434
13.66,0.1009308323264122,-0.0009320789249613881,0.04860125854611397,-0.13255299627780914,-0.964318573474884,-0.17195899784564972
13.68,0.09773512929677963,-0.0009320789249613881,0.04860125854611397,-0.1327970027923584,-0.9701744914054871,-0.1714709997177124
13.7,0.09560466557741165,-0.0030625448562204838,0.04647079110145569,-0.1357250064611435,-0.9679784774780273,-0.16460849344730377
13.72,0.0902784988284111,0.0001331541279796511,0.0454055592417717,-0.13819549977779388,-0.9674904942512512,-0.156312495470047
13.74,0.09134373068809509,0.0001331541279796511,0.04434032365679741,-0.13523699343204498,-0.964318573474884,-0.15606850385665894
13.76,0.08495233207941055,-0.001997311832383275,0.03794892504811287,-0.14185549318790436,-0.9721264839172363,-0.15265250205993652
13.78,0.07749570161104202,-0.001997311832383275,0.03688369318842888,-0.14185549318790436,-0.9713944792747498,-0.14899249374866486
13.8,0.07323476672172546,-0.0009320789249613881,0.03049229457974434,-0.13941550254821777,-0.9706624746322632,-0.15143249928951263
13.82,0.07110430300235748,0.0033288532868027687,0.03155753016471863,-0.14185549318790436,-0.9716385006904602,-0.15021249651908875
13.84,0.06045197322964668,0.005459319334477186,0.02836182899773121,-0.14478349685668945,-0.9721264839172363,-0.14899249374866486
13.86,0.05299534276127815,0.007589785382151604,0.02090519852936268,-0.14429549872875214,-0.9660264849662781,-0.14508849382400513
13.88,0.04127778112888336,0.009720250964164734,0.013448567129671574,-0.14405149221420288,-0.9760304689407349,-0.14066599309444427
13.9,0.03595161437988281,0.008655018173158169,0.011318100616335869,-0.15015150606632233,-0.9731025695800781,-0.14066599309444427
13.92,0.03169068321585655,0.007589785382151604,0.005991935729980469,-0.14673548936843872,-0.9792025089263916,-0.138714000582695
13.94,0.019973119720816612,0.015046416781842709,0.0027962366584688425,-0.14673548936843872,-0.9792025089263916,-0.138714000582695
13.96,0.010386021807789803,0.010785484686493874,-0.00359516148455441,-0.14527150988578796,-0.9704185128211975,-0.13651800155639648
13.98,0.0007989247678779066,0.012915950268507004,-0.008921326138079166,-0.1420994997024536,-0.9735905528068542,-0.1357859969139099
14,-0.007589785382151604,0.013981183059513569,-0.009986559860408306,-0.14649149775505066,-0.968222439289093,-0.14115400612354279
14.02,-0.020372580736875534,0.012915950268507004,-0.013182258233428001,-0.14380750060081482,-0.9735905528068542,-0.14090999960899353
14.04,-0.020372580736875534,0.015046416781842709,-0.014247491955757141,-0.14673548936843872,-0.966514527797699,-0.14338049292564392
14.06,-0.03209014609456062,0.012915950268507004,-0.01637795753777027,-0.14673548936843872,-0.966514527797699,-0.14338049292564392
14.08,-0.03848154470324516,0.011850717477500439,-0.02596505545079708,-0.14087949693202972,-0.9752985239028931,-0.14313650131225586
14.1,-0.04593817517161369,0.012915950268507004,-0.02809552103281021,-0.14087949693202972,-0.9752985239028931,-0.14313650131225586
14.12,-0.053394805639982224,0.009720250964164734,-0.03342168778181076,-0.13819549977779388,-0.9716385006904602,-0.14139799773693085
14.14,-0.058720968663692474,0.012915950268507004,-0.03555215150117874,-0.1386834979057312,-0.9738345146179199,-0.14264850318431854
14.16,-0.07043853402137756,0.010785484686493874,-0.039813082665205,-0.1403914988040924,-0.9713944792747498,-0.14362449944019318
14.18,-0.0768299326300621,0.010785484686493874,-0.03874785080552101,-0.13795149326324463,-0.9772504568099976,-0.1441124975681305
14.2,-0.08428656309843063,0.013981183059513569,-0.04300878196954727,-0.1357250064611435,-0.966514527797699,-0.14972449839115143
14.22,-0.08961272984743118,0.007589785382151604,-0.04513924941420555,-0.1357250064611435,-0.966514527797699,-0.14972449839115143
14.24,-0.09387365728616714,0.011850717477500439,-0.04513924941420555,-0.1362130045890808,-0.9713944792747498,-0.1516764909029007
14.26,-0.10452599078416824,0.011850717477500439,-0.04726971685886383,-0.1345050036907196,-0.9689545631408691,-0.15411649644374847
14.28,-0.11304785311222076,0.007589785382151604,-0.04620448127388954,-0.13255299627780914,-0.9713944792747498,-0.1655845046043396
14.3,-0.11411308497190475,0.009720250964164734,-0.05153064802289009,-0.13499300181865692,-0.972370445728302,-0.16607250273227692
14.32,-0.1205044835805893,0.012915950268507004,-0.05153064802289009,-0.12889300286769867,-0.9677344560623169,-0.17049500346183777
14.34,-0.1205044835805893,0.011850717477500439,-0.05153064802289009,-0.129381000995636,-0.9694425463676453,-0.16802451014518738
14.36,-0.12796111404895782,0.013981183059513569,-0.05579157918691635,-0.12669700384140015,-0.9684664607048035,-0.1685125082731247
14.38,-0.1290263533592224,0.0033288532868027687,-0.05259587988257408,-0.12474500387907028,-0.9660264849662781,-0.17415499687194824
14.4,-0.1300915777683258,0.004394086077809334,-0.05579157918691635,-0.12474500387907028,-0.9660264849662781,-0.17415499687194824
14.42,-0.12796111404895782,0.005459319334477186,-0.05259587988257408,-0.12498899549245834,-0.9677344560623169,-0.17513100802898407
14.44,-0.12796111404895782,0.00226362026296556,-0.04940018057823181,-0.11791300028562546,-0.9621224999427795,-0.18391500413417816
14.46,-0.1311568170785904,0.004394086077809334,-0.04940018057823181,-0.12206100672483444,-0.9670025110244751,-0.18245099484920502
14.48,-0.1290263533592224,0.008655018173158169,-0.04726971685886383,-0.11986500769853592,-0.9630984663963318,-0.19050300121307373
14.5,-0.1290263533592224,0.005459319334477186,-0.04300878196954727,-0.11742500215768814,-0.96236652135849,-0.19099099934101105
14.52,-0.12476541846990585,-0.001997311832383275,-0.04513924941420555,-0.11034899950027466,-0.96236652135849,-0.19635899364948273
14.54,-0.12370018661022186,0.0011983871227130294,-0.039813082665205,-0.115960992872715,-0.9596824645996094,-0.20151349902153015
14.56,-0.1205044835805893,0.005459319334477186,-0.039813082665205,-0.11449700593948364,-0.9562360048294067,-0.20444151759147644
14.58,-0.11091738939285278,0.006524552125483751,-0.03235645219683647,-0.11156899482011795,-0.9574559926986694,-0.204197496175766
14.6,-0.10772168636322021,0.00226362026296556,-0.03022598661482334,-0.10961700230836868,-0.9596824645996094,-0.2105415016412735
14.62,-0.10026505589485168,-0.0009320789249613881,-0.02809552103281021,-0.11059299111366272,-0.9537959694862366,-0.21151749789714813
14.64,-0.0991998240351677,0.0033288532868027687,-0.02170412242412567,-0.11156899482011795,-0.957211971282959,-0.2122495025396347
14.66,-0.09067796170711517,0.0033288532868027687,-0.01957365684211254,-0.11156899482011795,-0.957211971282959,-0.2122495025396347
14.68,-0.08002562820911407,0.0001331541279796511,-0.01957365684211254,-0.11108099669218063,-0.9516000151634216,-0.2117614895105362
14.7,-0.07469946891069412,-0.0009320789249613881,-0.015312724746763706,-0.11205700039863586,-0.9528200030326843,-0.2163975089788437
14.72,-0.06511236727237701,-0.001997311832383275,-0.006790860556066036,-0.1088544949889183,-0.9533079862594604,-0.2193254977464676
14.74,-0.054460037499666214,-0.004127778112888336,-0.008921326138079166,-0.1088544949889183,-0.9533079862594604,-0.2193254977464676
14.76,-0.04913387447595596,-0.001997311832383275,-0.004660394508391619,-0.11059299111366272,-0.9442799687385559,-0.2215214967727661
14.78,-0.03848154470324516,-0.005193010903894901,-0.0014646954368799925,-0.11059299111366272,-0.9442799687385559,-0.2215214967727661
14.8,-0.031024912372231483,0.0001331541279796511,0.000665770610794425,-0.10986100137233734,-0.9540400505065918,-0.2227414846420288
14.82,-0.028894444927573204,0.00226362026296556,0.0027962366584688425,-0.10787849128246307,-0.9506240487098694,-0.22176551818847656
14.84,-0.016111649572849274,0.004394086077809334,0.0027962366584688425,-0.10568249225616455,-0.9535519480705261,-0.22371749579906464
14.86,-0.011850717477500439,0.0033288532868027687,0.0038614696823060513,-0.10986100137233734,-0.9513559937477112,-0.2252119928598404
14.88,-0.0011983871227130294,0.0033288532868027687,0.010252867825329304,-0.11254499852657318,-0.9496479630470276,-0.22765198349952698
14.9,0.0050598569214344025,0.005459319334477186,0.010252867825329304,-0.10641450434923172,-0.9476959705352783,-0.2269200086593628
14.92,0.016777420416474342,0.0011983871227130294,0.011318100616335869,-0.10641450434923172,-0.9508680105209351,-0.22225350141525269
14.94,0.025299284607172012,0.0033288532868027687,0.014513799920678139,-0.10763449966907501,-0.9559919834136963,-0.2193254977464676
14.96,0.03275591507554054,0.0001331541279796511,0.015579032711684704,-0.1101050078868866,-0.9472079873085022,-0.21956948935985565
14.98,0.04340824484825134,-0.001997311832383275,0.02090519852936268,-0.10861050337553024,-0.9520879983901978,-0.22176551818847656
15,0.04873441159725189,0.0011983871227130294,0.01877473294734955,-0.11083699762821198,-0.9508680105209351,-0.22347350418567657
15.02,0.05406057462096214,-0.0009320789249613881,0.01983996480703354,-0.11083699762821198,-0.9518439769744873,-0.21956948935985565
15.04,0.05938674136996269,-0.001997311832383275,0.02197043038904667,-0.10909850150346756,-0.9511120319366455,-0.22078950703144073
15.06,0.06364767253398895,-0.0030625448562204838,0.02516612969338894,-0.11230100691318512,-0.9518439769744873,-0.21371349692344666
15.08,0.07003907114267349,0.00226362026296556,0.02729659713804722,-0.11449700593948364,-0.9520879983901978,-0.21444550156593323
15.1,0.07643046975135803,0.0001331541279796511,0.03049229457974434,-0.11278900504112244,-0.9516000151634216,-0.21493349969387054
15.12,0.07856093347072601,0.0033288532868027687,0.03155753016471863,-0.1130329966545105,-0.9552600383758545,-0.21005350351333618
15.14,0.08388710021972656,0.0011983871227130294,0.03262276202440262,-0.11742500215768814,-0.959926426410675,-0.21029749512672424
15.16,0.0902784988284111,0.005459319334477186,0.03155753016471863,-0.11986500769853592,-0.9567239880561829,-0.2076134830713272
15.18,0.09560466557741165,0.004394086077809334,0.03368799388408661,-0.11425299942493439,-0.9584320187568665,-0.20029349625110626
15.2,0.10199606418609619,0.0033288532868027687,0.03901416063308716,-0.11693699657917023,-0.955016016960144,-0.20322149991989136
15.22,0.10945269465446472,0.007589785382151604,0.03688369318842888,-0.11522899568080902,-0.9528200030326843,-0.20102550089359283
15.24,0.1115831583738327,0.00226362026296556,0.04220985993742943,-0.11425299942493439,-0.957211971282959,-0.2017575055360794
15.26,0.11797455698251724,-0.0009320789249613881,0.04434032365679741,-0.11791300028562546,-0.9576999545097351,-0.2029774934053421
15.28,0.12117026001214981,-0.0030625448562204838,0.04327509179711342,-0.11571700125932693,-0.9594384431838989,-0.19760949909687042
15.3,0.12330072373151779,-0.006258244160562754,0.05179695412516594,-0.11962100118398666,-0.9596824645996094,-0.19931749999523163
15.32,0.12756165862083435,-0.011584409512579441,0.0560578890144825,-0.11962100118398666,-0.9611465334892273,-0.19269900023937225
15.34,0.12969212234020233,-0.008388710208237171,0.05818835273385048,-0.12206100672483444,-0.9648065567016602,-0.1900150030851364
15.36,0.13075734674930573,-0.008388710208237171,0.06031882017850876,-0.12035300582647324,-0.9657825231552124,-0.18855100870132446
15.38,0.12969212234020233,-0.010519175790250301,0.06138405203819275,-0.1252330094575882,-0.9606585502624512,-0.18757499754428864
15.4,0.12756165862083435,-0.007323476951569319,0.06138405203819275,-0.12840498983860016,-0.9609025120735168,-0.1761070042848587
15.42,0.1339530497789383,-0.011584409512579441,0.0667102187871933,-0.12840498983860016,-0.96236652135849,-0.17342300713062286
15.44,0.13608351349830627,-0.010519175790250301,0.06351451575756073,-0.13060098886489868,-0.9652945399284363,-0.1714709997177124
15.46,0.13501828908920288,-0.012649642303586006,0.06351451575756073,-0.1298689991235733,-0.9652945399284363,-0.16704849898815155
15.48,0.13501828908920288,-0.009453942999243736,0.06457975506782532,-0.13304099440574646,-0.9726144671440125,-0.16826850175857544
15.5,0.12862688302993774,-0.006258244160562754,0.06138405203819275,-0.13843950629234314,-0.968222439289093,-0.1609485000371933
15.52,0.1222354918718338,-0.006258244160562754,0.06031882017850876,-0.13721950352191925,-0.9684664607048035,-0.15655648708343506
15.54,0.11690932512283325,-0.0009320789249613881,0.06031882017850876,-0.13721950352191925,-0.9684664607048035,-0.15655648708343506
15.56,0.10519175976514816,-0.004127778112888336,0.05712312087416649,-0.1403914988040924,-0.9740785360336304,-0.16021649539470673
15.58,0.09986559301614761,0.004394086077809334,0.05286218971014023,-0.1374634951353073,-0.9684664607048035,-0.13627399504184723
15.6,0.08601756393909454,0.005459319334477186,0.04860125854611397,-0.14283150434494019,-0.9677344560623169,-0.14386850595474243
15.62,0.08069140464067459,0.004394086077809334,0.04860125854611397,-0.14722350239753723,-0.9748104810714722,-0.13725000619888306
15.64,0.07536523789167404,0.004394086077809334,0.04647079110145569,-0.1479555070400238,-0.9767624735832214,-0.13676200807094574
15.66,0.07003907114267349,0.005459319334477186,0.03368799388408661,-0.1403914988040924,-0.9755424857139587,-0.132858008146286
15.68,0.0583215095102787,0.007589785382151604,0.02516612969338894,-0.1403914988040924,-0.9755424857139587,-0.132858008146286
15.7,0.04873441159725189,0.010785484686493874,0.02090519852936268,-0.1521034985780716,-0.9777385592460632,-0.13481000065803528
15.72,0.04234301298856735,0.005459319334477186,0.015579032711684704,-0.15234750509262085,-0.9709064960479736,-0.12968599796295166
15.74,0.029560215771198273,0.009720250964164734,0.014513799920678139,-0.15234750509262085,-0.9709064960479736,-0.12968599796295166
15.76,0.019973119720816612,0.009720250964164734,0.0027962366584688425,-0.1491754949092865,-0.9748104810714722,-0.13163799047470093
15.78,0.008255556225776672,0.010785484686493874,-0.005725627299398184,-0.14819949865341187,-0.9757865071296692,-0.13310199975967407
15.8,-0.004394086077809334,0.010785484686493874,-0.009986559860408306,-0.14819949865341187,-0.9757865071296692,-0.13310199975967407
15.82,-0.015046416781842709,0.008655018173158169,-0.014247491955757141,-0.14697949588298798,-0.9745665192604065,-0.13261400163173676
15.84,-0.029959678649902344,0.008655018173158169,-0.0185084231197834,-0.15137150883674622,-0.9777385592460632,-0.12871000170707703
15.86,-0.03848154470324516,0.010785484686493874,-0.02170412242412567,-0.14771150052547455,-0.9757865071296692,-0.13261400163173676
15.88,-0.051264338195323944,0.016111649572849274,-0.02596505545079708,-0.14405149221420288,-0.9750545024871826,-0.13261400163173676
15.9,-0.060851436108350754,0.008655018173158169,-0.03022598661482334,-0.1462474912405014,-0.9745665192604065,-0.13139399886131287
15.92,-0.06511236727237701,0.011850717477500439,-0.03235645219683647,-0.14429549872875214,-0.9733465313911438,-0.13017401099205017
15.94,-0.08109086751937866,0.010785484686493874,-0.039813082665205,-0.14356349408626556,-0.9752985239028931,-0.13554200530052185
15.96,-0.08428656309843063,0.013981183059513569,-0.04407401755452156,-0.1450275033712387,-0.9709064960479736,-0.13383398950099945
15.98,-0.0981345921754837,0.016111649572849274,-0.04833494871854782,-0.14551550149917603,-0.9721264839172363,-0.13846999406814575
16,-0.10346075892448425,0.013981183059513569,-0.05153064802289009,-0.1420994997024536,-0.9696865081787109,-0.14264850318431854
16.02,-0.1087869256734848,0.016111649572849274,-0.05579157918691635,-0.1433195024728775,-0.9752985239028931,-0.14508849382400513
16.04,-0.12156971544027328,0.020372580736875534,-0.06005251035094261,-0.1327970027923584,-0.972370445728302,-0.15314050018787384
16.06,-0.1300915777683258,0.016111649572849274,-0.0611177459359169,-0.1327970027923584,-0.972370445728302,-0.15314050018787384
16.08,-0.13754820823669434,0.015046416781842709,-0.06537867337465286,-0.14087949693202972,-0.9704185128211975,-0.15094450116157532
16.1,-0.1407439112663269,0.016111649572849274,-0.0611177459359169,-0.13255299627780914,-0.9704185128211975,-0.15240849554538727
16.12,-0.14500483870506287,0.012915950268507004,-0.06324820965528488,-0.13084499537944794,-0.966514527797699,-0.1626565009355545
16.14,-0.14607007801532745,0.011850717477500439,-0.05579157918691635,-0.13133300840854645,-0.9674904942512512,-0.16460849344730377
16.16,-0.15033100545406342,0.018242115154862404,-0.05898727849125862,-0.129381000995636,-0.9694425463676453,-0.16900049149990082
16.18,-0.15033100545406342,0.013981183059513569,-0.05898727849125862,-0.12108500301837921,-0.965538501739502,-0.1743989884853363
16.2,-0.151396244764328,0.015046416781842709,-0.0611177459359169,-0.12254900485277176,-0.9726144671440125,-0.17635099589824677
16.22,-0.1524614691734314,0.011850717477500439,-0.06324820965528488,-0.12547700107097626,-0.9672464728355408,-0.18342699110507965
16.24,-0.1524614691734314,0.009720250964164734,-0.06431344151496887,-0.11791300028562546,-0.9657825231552124,-0.19172300398349762
16.26,-0.151396244764328,0.007589785382151604,-0.0611177459359169,-0.11864499747753143,-0.9626104831695557,-0.1953829973936081
16.28,-0.15033100545406342,0.012915950268507004,-0.05579157918691635,-0.10812249779701233,-0.9657825231552124,-0.19513900578022003
16.3,-0.1418091505765915,0.007589785382151604,-0.05366111174225807,-0.11034899950027466,-0.9635864496231079,-0.20248949527740479
16.32,-0.13222205638885498,0.007589785382151604,-0.04940018057823181,-0.10961700230836868,-0.9596824645996094,-0.1958709955215454
16.34,-0.12476541846990585,-0.004127778112888336,-0.04087831825017929,-0.11571700125932693,-0.9542840719223022,-0.2012694925069809
16.36,-0.12263495475053787,-0.011584409512579441,-0.03235645219683647,-0.11425299942493439,-0.9542840719223022,-0.21468950808048248
16.38,-0.11517832428216934,-0.009453942999243736,-0.02809552103281021,-0.10690250247716904,-0.9559919834136963,-0.21298149228096008
16.4,-0.1087869256734848,-0.009453942999243736,-0.02703028731048107,-0.11034899950027466,-0.9574559926986694,-0.21322551369667053
16.42,-0.0991998240351677,-0.008388710208237171,-0.02170412242412567,-0.11034899950027466,-0.9506240487098694,-0.21249349415302277
16.44,-0.09493889659643173,-0.010519175790250301,-0.02170412242412567,-0.1130329966545105,-0.9506240487098694,-0.22030149400234222
16.46,-0.08641702681779861,-0.009453942999243736,-0.012117025442421436,-0.11205700039863586,-0.9537959694862366,-0.22030149400234222
16.48,-0.08109086751937866,-0.006258244160562754,-0.015312724746763706,-0.10568249225616455,-0.9520879983901978,-0.22176551818847656
16.5,-0.06298190355300903,0.0001331541279796511,-0.011051792651414871,-0.11059299111366272,-0.9496479630470276,-0.22789600491523743
16.52,-0.051264338195323944,0.0011983871227130294,-0.008921326138079166,-0.10909850150346756,-0.9476959705352783,-0.22127750515937805
16.54,-0.04913387447595596,-0.001997311832383275,-0.004660394508391619,-0.10641450434923172,-0.9523320198059082,-0.22789600491523743
16.56,-0.040612008422613144,-0.001997311832383275,-0.0025299284607172012,-0.10861050337553024,-0.9472079873085022,-0.22496800124645233
16.58,-0.03528584539890289,-0.0009320789249613881,0.000665770610794425,-0.10861050337553024,-0.9472079873085022,-0.22496800124645233
16.6,-0.022503048181533813,-0.001997311832383275,0.0027962366584688425,-0.10543850064277649,-0.9481840133666992,-0.22911600768566132
16.62,-0.012915950268507004,-0.009453942999243736,0.005991935729980469,-0.10739050805568695,-0.9498920440673828,-0.22472400963306427
16.64,0.0007989247678779066,-0.004127778112888336,0.011318100616335869,-0.10690250247716904,-0.9498920440673828,-0.22935999929904938
16.66,0.014646953903138638,-0.005193010903894901,0.014513799920678139,-0.10275450348854065,-0.9520879983901978,-0.2327760010957718
16.68,0.026364516466856003,-0.0030625448562204838,0.013448567129671574,-0.10275450348854065,-0.9496479630470276,-0.22960399091243744
16.7,0.03275591507554054,-0.006258244160562754,0.012383334338665009,-0.10299849510192871,-0.9533079862594604,-0.23424001038074493
16.72,0.04660394415259361,-0.0030625448562204838,0.015579032711684704,-0.1101050078868866,-0.9450119733810425,-0.2239920049905777
16.74,0.05619104206562042,-0.0009320789249613881,0.02197043038904667,-0.11278900504112244,-0.9518439769744873,-0.2257000058889389
16.76,0.06790860742330551,0.0033288532868027687,0.02516612969338894,-0.1088544949889183,-0.9496479630470276,-0.22030149400234222
16.78,0.07749570161104202,0.00226362026296556,0.02836182899773121,-0.10812249779701233,-0.9523320198059082,-0.22225350141525269
16.8,0.08708280324935913,-0.0009320789249613881,0.02410089783370495,-0.11156899482011795,-0.9516000151634216,-0.2257000058889389
16.82,0.09347419440746307,-0.0030625448562204838,0.02729659713804722,-0.11156899482011795,-0.9516000151634216,-0.2257000058889389
16.84,0.09453943371772766,0.0011983871227130294,0.03155753016471863,-0.11059299111366272,-0.9484279751777649,-0.2185935080051422
16.86,0.10838746279478073,0.0011983871227130294,0.03581846132874489,-0.11254499852657318,-0.955016016960144,-0.21566550433635712
16.88,0.1115831583738327,0.004394086077809334,0.03688369318842888,-0.11254499852657318,-0.955016016960144,-0.21566550433635712
16.9,0.12330072373151779,0.0033288532868027687,0.03794892504811287,-0.11449700593948364,-0.955016016960144,-0.2122495025396347
16.92,0.12862688302993774,0.0033288532868027687,0.04007939249277115,-0.11156899482011795,-0.9528200030326843,-0.21078549325466156
16.94,0.1339530497789383,-0.0009320789249613881,0.04327509179711342,-0.1130329966545105,-0.9523320198059082,-0.20102550089359283
16.96,0.14034445583820343,0.0001331541279796511,0.04220985993742943,-0.11376499384641647,-0.9567239880561829,-0.20395350456237793
16.98,0.13821399211883545,0.00226362026296556,0.04327509179711342,-0.11913299560546875,-0.9594384431838989,-0.19956150650978088
17,0.14673584699630737,0.0001331541279796511,0.05179695412516594,-0.11913299560546875,-0.9594384431838989,-0.19956150650978088
17.02,0.15632294118404388,0.0011983871227130294,0.05499265342950821,-0.11693699657917023,-0.9650505185127258,-0.18928299844264984
17.04,0.16058388352394104,0.007589785382151604,0.05712312087416649,-0.11693699657917023,-0.9650505185127258,-0.18928299844264984
17.06,0.16164910793304443,0.005459319334477186,0.05712312087416649,-0.12206100672483444,-0.9635864496231079,-0.18733099102973938
17.08,0.16271434724330902,0.0011983871227130294,0.0560578890144825,-0.12279299646615982,-0.9611465334892273,-0.18293899297714233
17.1,0.16271434724330902,0.0001331541279796511,0.05712312087416649,-0.12279299646615982,-0.965538501739502,-0.1726910024881363
17.12,0.16377957165241241,-0.0009320789249613881,0.05925358831882477,-0.12498899549245834,-0.9652945399284363,-0.17195899784564972
17.14,0.164844810962677,0.0011983871227130294,0.06457975506782532,-0.12718500196933746,-0.9677344560623169,-0.16704849898815155
17.16,0.15951864421367645,0.005459319334477186,0.06244928762316704,-0.12962500751018524,-0.9740785360336304,-0.16485249996185303
17.18,0.16058388352394104,0.0033288532868027687,0.06138405203819275,-0.12620899081230164,-0.976518452167511,-0.16290049254894257
17.2,0.14780108630657196,0.004394086077809334,0.0560578890144825,-0.13206499814987183,-0.9728584289550781,-0.15850849449634552
17.22,0.14034445583820343,0.004394086077809334,0.0560578890144825,-0.1327970027923584,-0.9709064960479736,-0.15533649921417236
17.24,0.12969212234020233,0.006524552125483751,0.05392742156982422,-0.13596899807453156,-0.9694425463676453,-0.14606450498104095
17.26,0.12436595559120178,0.006524552125483751,0.05179695412516594,-0.13892750442028046,-0.9733465313911438,-0.1399340033531189
17.28,0.11371362209320068,0.004394086077809334,0.04434032365679741,-0.1403914988040924,-0.9740785360336304,-0.1357859969139099
17.3,0.10838746279478073,0.005459319334477186,0.03901416063308716,-0.13697549700737,-0.9750545024871826,-0.12724599242210388
17.32,0.09773512929677963,0.004394086077809334,0.03155753016471863,-0.14258749783039093,-0.9760304689407349,-0.12748999893665314
17.34,0.08282186836004257,0.0001331541279796511,0.03049229457974434,-0.14575950801372528,-0.9740785360336304,-0.12407399713993073
17.36,0.07749570161104202,0.00226362026296556,0.03155753016471863,-0.14575950801372528,-0.9731025695800781,-0.12456199526786804
17.38,0.06471290439367294,0.0001331541279796511,0.02729659713804722,-0.14575950801372528,-0.9731025695800781,-0.12456199526786804
17.4,0.05299534276127815,0.0001331541279796511,0.02410089783370495,-0.14429549872875214,-0.9804224967956543,-0.12504999339580536
17.42,0.04340824484825134,0.0033288532868027687,0.01664426550269127,-0.14234349131584167,-0.9777385592460632,-0.1248060017824173
17.44,0.024234050884842873,0.0011983871227130294,0.010252867825329304,-0.14014749228954315,-0.9752985239028931,-0.11992600560188293
17.46,0.00719032296910882,0.0011983871227130294,0.004926702938973904,-0.14014749228954315,-0.9752985239028931,-0.11992600560188293
17.48,-0.009720250964164734,0.0001331541279796511,-0.0025299284607172012,-0.1445394903421402,-0.9735905528068542,-0.12114600092172623
17.5,-0.020372580736875534,0.00226362026296556,-0.007856093347072601,-0.14697949588298798,-0.9757865071296692,-0.12114600092172623
17.52,-0.027829213067889214,0.00226362026296556,-0.008921326138079166,-0.14697949588298798,-0.9755424857139587,-0.11480199545621872
17.54,-0.036351077258586884,0.004394086077809334,-0.014247491955757141,-0.14649149775505066,-0.9757865071296692,-0.1218779981136322
17.56,-0.048068638890981674,0.010785484686493874,-0.02170412242412567,-0.14234349131584167,-0.9733465313911438,-0.1189500018954277
17.58,-0.061916667968034744,0.008655018173158169,-0.02170412242412567,-0.14234349131584167,-0.976518452167511,-0.12065799534320831
17.6,-0.07363422960042953,0.006524552125483751,-0.02809552103281021,-0.13892750442028046,-0.9774945378303528,-0.12846601009368896
17.62,-0.08215609937906265,0.006524552125483751,-0.03235645219683647,-0.14063550531864166,-0.9767624735832214,-0.12968599796295166
17.64,-0.09600412845611572,0.008655018173158169,-0.039813082665205,-0.14063550531864166,-0.9799345135688782,-0.12626999616622925
17.66,-0.10346075892448425,0.009720250964164734,-0.04620448127388954,-0.1374634951353073,-0.9735905528068542,-0.13334600627422333
17.68,-0.10665645450353622,0.010785484686493874,-0.04620448127388954,-0.1374634951353073,-0.9735905528068542,-0.13139399886131287
17.7,-0.11091738939285278,0.010785484686493874,-0.04726971685886383,-0.13941550254821777,-0.972370445728302,-0.13188199698925018
17.72,-0.11624355614185333,0.006524552125483751,-0.0504654161632061,-0.1340170055627823,-0.9750545024871826,-0.13920199871063232
17.74,-0.1194392517209053,0.008655018173158169,-0.05259587988257408,-0.13548099994659424,-0.968222439289093,-0.138714000582695
17.76,-0.1205044835805893,0.009720250964164734,-0.0504654161632061,-0.13377299904823303,-0.9728584289550781,-0.14386850595474243
17.78,-0.12583065032958984,0.008655018173158169,-0.05472634732723236,-0.13133300840854645,-0.9694425463676453,-0.14801649749279022
17.8,-0.13222205638885498,0.011850717477500439,-0.05685681104660034,-0.13133300840854645,-0.9701744914054871,-0.1458204984664917
17.82,-0.13328728079795837,0.007589785382151604,-0.05472634732723236,-0.13133300840854645,-0.9701744914054871,-0.1458204984664917
17.84,-0.1396786868572235,0.010785484686493874,-0.05259587988257408,-0.1315770000219345,-0.9672464728355408,-0.15582449734210968
17.86,-0.1418091505765915,0.011850717477500439,-0.05898727849125862,-0.12425700575113297,-0.9691985249519348,-0.1575324982404709
17.88,-0.14287437498569489,0.009720250964164734,-0.05366111174225807,-0.12108500301837921,-0.972370445728302,-0.16046050190925598
17.9,-0.14287437498569489,0.013981183059513569,-0.05792204663157463,-0.12498899549245834,-0.9667584896087646,-0.16778050363063812
17.92,-0.14393961429595947,0.013981183059513569,-0.05472634732723236,-0.11742500215768814,-0.9694425463676453,-0.1731790006160736
17.94,-0.14607007801532745,0.013981183059513569,-0.05366111174225807,-0.11913299560546875,-0.9581879377365112,-0.17220298945903778
17.96,-0.14607007801532745,0.009720250964164734,-0.05259587988257408,-0.11547300964593887,-0.9604145288467407,-0.17976699769496918
17.98,-0.14607007801532745,0.011850717477500439,-0.0504654161632061,-0.11791300028562546,-0.9589504599571228,-0.18147499859333038
18,-0.1407439112663269,0.008655018173158169,-0.04513924941420555,-0.11864499747753143,-0.9576999545097351,-0.18513499200344086
18.02,-0.13222205638885498,0.010785484686493874,-0.04407401755452156,-0.11327699571847916,-0.95306396484375,-0.18684299290180206
18.04,-0.12583065032958984,0.011850717477500439,-0.04194355010986328,-0.10909850150346756,-0.9606585502624512,-0.1895269900560379
18.06,-0.12156971544027328,0.008655018173158169,-0.03555215150117874,-0.11620499938726425,-0.9567239880561829,-0.19611500203609467
18.08,-0.11730878800153732,0.004394086077809334,-0.03129122033715248,-0.1088544949889183,-0.9584320187568665,-0.19858549535274506
18.1,-0.11624355614185333,0.009720250964164734,-0.03022598661482334,-0.10937299579381943,-0.9579439759254456,-0.20395350456237793
18.12,-0.11091738939285278,0.005459319334477186,-0.02809552103281021,-0.10641450434923172,-0.9594384431838989,-0.20810149610042572
18.14,-0.10452599078416824,0.007589785382151604,-0.02703028731048107,-0.10763449966907501,-0.9559919834136963,-0.21078549325466156
18.16,-0.0991998240351677,0.004394086077809334,-0.02489982172846794,-0.10763449966907501,-0.9559919834136963,-0.21078549325466156
18.18,-0.09067796170711517,0.0011983871227130294,-0.02489982172846794,-0.10836649686098099,-0.9581879377365112,-0.21029749512672424
18.2,-0.08641702681779861,-0.0030625448562204838,-0.02170412242412567,-0.10543850064277649,-0.9606585502624512,-0.21712949872016907
18.22,-0.0778951644897461,-0.001997311832383275,-0.01637795753777027,-0.10251050442457199,-0.9511120319366455,-0.21468950808048248
18.24,-0.06404713541269302,0.0011983871227130294,-0.011051792651414871,-0.10937299579381943,-0.9557480216026306,-0.21542151272296906
18.26,-0.054460037499666214,0.004394086077809334,-0.00359516148455441,-0.10986100137233734,-0.9520879983901978,-0.21249349415302277
18.28,-0.047003407031297684,0.00226362026296556,-0.0014646954368799925,-0.10543850064277649,-0.9523320198059082,-0.21590949594974518
18.3,-0.03848154470324516,0.006524552125483751,-0.0003994623839389533,-0.10763449966907501,-0.9508680105209351,-0.21761751174926758
18.32,-0.031024912372231483,0.004394086077809334,0.005991935729980469,-0.10348649322986603,-0.9484279751777649,-0.2193254977464676
18.34,-0.024633513763546944,0.006524552125483751,0.009187635034322739,-0.10226649791002274,-0.9494039416313171,-0.22127750515937805
18.36,-0.015046416781842709,0.007589785382151604,0.009187635034322739,-0.10251050442457199,-0.9511120319366455,-0.2181054949760437
18.38,-0.010785484686493874,0.008655018173158169,0.009187635034322739,-0.10177849978208542,-0.9528200030326843,-0.21908150613307953
18.4,-0.0011983871227130294,0.0033288532868027687,0.010252867825329304,-0.10275450348854065,-0.9525759816169739,-0.22423599660396576
18.42,0.00399462366476655,0.007589785382151604,0.015579032711684704,-0.10543850064277649,-0.9494039416313171,-0.22472400963306427
18.44,0.010386021807789803,0.004394086077809334,0.014513799920678139,-0.1012905016541481,-0.9520879983901978,-0.22200950980186462
18.46,0.014646953903138638,0.0033288532868027687,0.01770949922502041,-0.10373049974441528,-0.9498920440673828,-0.2239920049905777
18.48,0.025299284607172012,0.00226362026296556,0.02516612969338894,-0.10495050251483917,-0.9503800272941589,-0.2239920049905777
18.5,0.03275591507554054,-0.001997311832383275,0.02729659713804722,-0.10812249779701233,-0.9537959694862366,-0.22127750515937805
18.52,0.03382114693522453,-0.007323476951569319,0.03049229457974434,-0.10397449880838394,-0.9533079862594604,-0.21883749961853027
18.54,0.04127778112888336,-0.009453942999243736,0.03155753016471863,-0.10961700230836868,-0.9537959694862366,-0.22249749302864075
18.56,0.04340824484825134,-0.011584409512579441,0.03368799388408661,-0.10986100137233734,-0.9533079862594604,-0.22005750238895416
18.58,0.05086487531661987,-0.010519175790250301,0.03581846132874489,-0.10909850150346756,-0.9525759816169739,-0.21712949872016907
18.6,0.0583215095102787,-0.007323476951569319,0.03901416063308716,-0.10739050805568695,-0.9535519480705261,-0.21737349033355713
18.62,0.06364767253398895,-0.011584409512579441,0.04434032365679741,-0.11059299111366272,-0.9581879377365112,-0.21542151272296906
18.64,0.07430000603199005,-0.004127778112888336,0.04860125854611397,-0.10986100137233734,-0.9542840719223022,-0.2117614895105362
18.66,0.08282186836004257,-0.007323476951569319,0.05392742156982422,-0.11254499852657318,-0.95306396484375,-0.21371349692344666
18.68,0.09240896254777908,-0.008388710208237171,0.05712312087416649,-0.11278900504112244,-0.9547720551490784,-0.20980948209762573
18.7,0.10519175976514816,-0.005193010903894901,0.06244928762316704,-0.11547300964593887,-0.9540400505065918,-0.2088335156440735
18.72,0.1126483902335167,-0.0030625448562204838,0.06564498692750931,-0.11815699189901352,-0.9581879377365112,-0.20614950358867645
