timestamp,gyro_x,gyro_y,gyro_z,acc_x,acc_y,acc_z
0,-0.720097541809082,1.1077091693878174,0.7440652847290039,-0.13795149326324463,0.17034250497817993,1.1715660095214844
0.02,-0.9917319416999817,0.1704372763633728,0.8951951861381531,-0.11327699571847916,0.15567199885845184,1.1048624515533447
0.04,-0.9459269046783447,-0.5696333646774292,1.0496540069580078,-0.09153049439191818,0.08241099864244461,1.0818959474563599
0.06,-0.8457950353622437,-1.1713569164276123,1.2435264587402344,-0.23247100412845612,0.08314299583435059,1.1571394205093384
0.08,-0.804250955581665,-1.3705554008483887,1.203047513961792,0.010095500387251377,-0.005795000120997429,1.119776964187622
0.1,-0.8916000127792358,-0.9051817655563354,1.0997200012207031,-0.0009150000405497849,-0.16357149183750153,1.0948585271835327
0.12,-0.41131308674812317,-0.871094286441803,0.8898690342903137,-0.0009150000405497849,-0.16357149183750153,1.0948585271835327
0.14,0.501458466053009,-0.5451329946517944,0.02090519852936268,0.2218875139951706,-0.18849000334739685,1.112426519393921
0.16,1.3054430484771729,-1.4696221351623535,-0.02489982172846794,0.0340379998087883,-0.15893550217151642,1.0696959495544434
0.18,2.1724095344543457,-1.9413871765136719,0.6599118709564209,0.04745800048112869,-0.09397049993276596,0.897005021572113
0.2,1.6963835954666138,-1.6784077882766724,0.24873191118240356,0.30201098322868347,0.14347200095653534,0.776804506778717
0.22,0.34167349338531494,-0.40785109996795654,-0.4007939398288727,0.2883164882659912,0.12758150696754456,0.6996089816093445
0.24,-0.5061188340187073,-0.14047759771347046,-0.3593829870223999,0.21356098353862762,0.018147500231862068,0.7655804753303528
0.26,-1.0364717245101929,-0.1149120107293129,-0.4519250988960266,0.28221648931503296,0.07554849982261658,0.764848530292511
0.28,-1.9863933324813843,-0.19267402589321136,0.7962616682052612,0.28221648931503296,0.07554849982261658,0.764848530292511
0.3,-1.8969136476516724,-0.050998032093048096,1.1646991968154907,0.38185998797416687,-0.17921799421310425,1.1676315069198608
0.32,-0.6902710199356079,-0.29919731616973877,0.9686962962150574,0.38185998797416687,-0.17921799421310425,1.1676315069198608
0.34,0.464175283908844,-1.9392566680908203,0.6439333558082581,0.4808019995689392,-0.32089048624038696,1.252909541130066
0.36,1.2139661312103271,-3.7934279441833496,0.6066502332687378,0.4808019995689392,-0.32089048624038696,1.252909541130066
0.38,1.2830731868743896,-4.578371524810791,0.7696308493614197,0.32839348912239075,-0.3147905170917511,0.9414434432983398
0.4,1.0680292844772339,-5.084224224090576,1.5203537940979004,0.32839348912239075,-0.3147905170917511,0.9414434432983398
0.42,1.0957252979278564,-5.4345526695251465,2.2403182983398438,0.3342495262622833,-0.4513390064239502,0.7448099851608276
0.44,1.248985767364502,-6.514565944671631,2.486387014389038,0.6430010199546814,-0.3685314953327179,0.5809029936790466
0.46,1.695318341255188,-7.724404335021973,2.9485650062561035,0.5987759828567505,-0.5155720114707947,0.5848070383071899
0.48,2.2821285724639893,-7.675403594970703,3.789965867996216,0.5987759828567505,-0.5155720114707947,0.5848070383071899
0.5,2.3375205993652344,-6.637999534606934,4.437494277954102,0.5755959749221802,-0.6540725231170654,0.3630110025405884
0.52,1.9636238813400269,-5.359054088592529,4.971043109893799,0.6219865083694458,-0.7176040410995483,0.07917799800634384
0.54,1.5621641874313354,-4.49102258682251,5.29047966003418,0.7162925004959106,-0.7610664963722229,-0.11797399818897247
0.56,1.96788489818573,-4.97024393081665,5.702591896057129,0.5399109721183777,-1.0317234992980957,0.006374500226229429
0.58,2.9147439002990723,-5.881950378417969,6.1116414070129395,0.3791760206222534,-1.1479895114898682,0.049867499619722366
0.6,3.201158285140991,-4.7115254402160645,6.371425151824951,0.5636094808578491,-1.2244529724121094,0.07795799523591995
0.62,3.618729829788208,-2.7497658729553223,6.0882062911987305,0.9253699779510498,-1.205909013748169,0.40037351846694946
0.64,4.270386219024658,-1.2054443359375,4.976369380950928,1.6557536125183105,-1.1568039655685425,0.6370840072631836
0.66,4.880631446838379,0.7157034277915955,3.508744478225708,2.224426031112671,-0.9562360048294067,0.599965512752533
0.68,5.045742511749268,1.8830657005310059,0.986805260181427,2.5844783782958984,-0.7359039783477783,0.23012249171733856
0.7,4.790219783782959,1.7030413150787354,-1.6990467309951782,2.854403495788574,-0.6604470014572144,-0.17415499687194824
0.72,4.179974555969238,2.3814616203308105,-3.4434988498687744,2.252760410308838,-0.6264700293540955,-0.5405515432357788
0.74,2.6463050842285156,3.680779457092285,-4.573577880859375,1.8731575012207031,-0.614270031452179,-1.030076503753662
0.76,1.0051804780960083,2.810617446899414,-5.656653881072998,1.5328994989395142,-0.5231664776802063,-1.1666250228881836
0.78,-0.4400743842124939,2.192915439605713,-5.748263835906982,0.7785735130310059,-0.8040714859962463,-1.1983754634857178
0.8,-1.4368661642074585,1.8415216207504272,-5.206193447113037,0.2797764837741852,-0.9752985239028931,-0.5048969984054565
0.82,-0.6306179761886597,-0.4461994767189026,-3.7193942070007324,-0.8971269726753235,-1.1536320447921753,0.40918800234794617
0.84,-0.9885362386703491,-1.0670971870422363,-1.481872320175171,-1.3883600234985352,-0.9867969751358032,-0.020740000531077385
0.86,-1.0460587739944458,-2.7955708503723145,-0.05579157918691635,-0.44645899534225464,-0.5578449964523315,0.2904514968395233
0.88,-1.4634970426559448,-2.33858585357666,0.03581846132874489,0.46665000915527344,-0.27251750230789185,0.32760047912597656
0.9,-2.112090826034546,-1.428078055381775,-0.3178389072418213,0.876783549785614,-0.4193444848060608,0.2264624983072281
0.92,-2.453897476196289,-0.9350082874298096,-0.7118419408798218,0.8980114459991455,-0.6301299929618835,0.5769990086555481
0.94,-2.064155340194702,-0.5930684804916382,-1.191063642501831,1.2126495838165283,-0.8045595288276672,0.8181014657020569
0.96,-1.785197377204895,-1.0255531072616577,-2.0654869079589844,1.2126495838165283,-0.8045595288276672,0.8181014657020569
0.98,-1.9618929624557495,-0.46111273765563965,-1.9962466955184937,1.337730050086975,-0.7447185516357422,0.4306600093841553
1,-3.5882375240325928,-2.0329971313476562,-1.878005862236023,0.9380885362625122,-0.8922470211982727,0.13706699013710022
1.02,-4.757596969604492,-3.5750551223754883,-1.2805432081222534,0.6214985251426697,-0.21902050077915192,-0.4807104766368866
1.04,-6.245327949523926,-7.086462497711182,3.0412402153015137,-0.20974849164485931,-0.8021195530891418,-0.08716899901628494
1.06,-3.629781484603882,-4.2747802734375,6.410838603973389,-0.06002400070428848,-1.5310084819793701,1.1920620203018188
1.08,1.3054430484771729,2.1769368648529053,5.325632572174072,0.23335549235343933,-1.8402783870697021,0.5982574820518494
1.1,0.5579158067703247,1.9841296672821045,1.6630951166152954,2.192187547683716,-1.1775745153427124,-1.2328099012374878
1.12,-0.7158365845680237,1.4388635158538818,-0.4955996572971344,0.7932440042495728,-0.9239975214004517,0.1453630030155182
1.14,-0.5412715077400208,1.9734773635864258,-0.28907760977745056,0.614178478717804,-0.6198820471763611,0.05743149667978287
1.16,-0.2994636297225952,1.7712161540985107,0.14873315393924713,0.614178478717804,-0.6198820471763611,0.05743149667978287
1.18,0.018907885998487473,2.577331304550171,0.629020094871521,0.5096244812011719,-0.7923290133476257,-0.25818249583244324
1.2,-0.07150376588106155,2.8564224243164062,0.8037183284759521,0.5897480249404907,-0.7200440168380737,-0.4555480182170868
1.22,-1.3953220844268799,0.8339443206787109,1.1849385499954224,0.5897480249404907,-0.7200440168380737,-0.4555480182170868
1.24,-0.45285719633102417,0.47189822793006897,1.6822692155838013,0.6180825233459473,-0.8683044910430908,0.3402884900569916
1.26,-0.1737661361694336,0.36857062578201294,1.9847954511642456,0.48982998728752136,-0.9266815185546875,0.0046664997935295105
1.28,-0.12689588963985443,-0.22676147520542145,2.4576256275177,0.48982998728752136,-0.9266815185546875,0.0046664997935295105
1.3,0.24899822473526,-0.5547201037406921,2.5918450355529785,0.5042564868927002,-0.7295600175857544,0.09211000055074692
1.32,-0.5220973491668701,0.9777507781982422,1.6780083179473877,0.5267350077629089,-1.099647045135498,-0.22030149400234222
1.34,-1.4304747581481934,1.3653624057769775,1.2669615745544434,0.5267350077629089,-1.099647045135498,-0.22030149400234222
1.36,-1.2164961099624634,-0.7198312282562256,1.6503123044967651,0.16152800619602203,-0.7578945159912109,-0.00045750002027489245
1.38,-0.3335510790348053,-2.7763967514038086,2.2690794467926025,0.27806851267814636,-0.903471052646637,-0.0058559998869895935
1.4,-0.43368300795555115,-2.5090231895446777,1.6023768186569214,0.15054799616336823,-1.11428701877594,-0.1958709955215454
1.42,-0.7445979118347168,-1.473883032798767,1.1945257186889648,0.13636550307273865,-1.433804988861084,-0.2327760010957718
1.44,-0.622096061706543,-0.145803764462471,0.3616466224193573,0.2096569985151291,-1.1741279363632202,-0.2227414846420288
1.46,-0.12370018661022186,0.35685306787490845,-0.24859875440597534,0.2096569985151291,-1.1741279363632202,-0.2227414846420288
1.48,0.07110430300235748,-0.15112993121147156,-0.06963960826396942,0.22335149347782135,-0.8458260297775269,-0.15850849449634552
1.5,0.23301972448825836,-0.3194367587566376,0.04220985993742943,0.22335149347782135,-0.9801784753799438,-0.2676984965801239
1.52,0.3555215299129486,-0.32476291060447693,-0.0504654161632061,0.1634799987077713,-0.974322497844696,-0.3209514915943146
1.54,0.3342168629169464,-0.3695026934146881,-0.14101022481918335,0.13712801039218903,-0.9235095381736755,-0.23887600004673004
1.56,0.07536523789167404,0.058720968663692474,-0.11864032596349716,0.17619849741458893,-0.9579439759254456,-0.22765198349952698
1.58,0.014646953903138638,0.031024912372231483,-0.15379302203655243,0.18303050100803375,-0.9205814599990845,-0.2210334986448288
1.6,-0.4922707974910736,0.6540530920028687,0.38934266567230225,0.28465649485588074,-0.857324481010437,-0.013663999736309052
1.62,-0.36763855814933777,0.14167599380016327,0.7760222554206848,0.20014099776744843,-0.8873670101165771,-0.24155999720096588
1.64,-0.010785484686493874,-0.28002312779426575,1.1103723049163818,0.20990100502967834,-0.926925539970398,-0.1277339905500412
1.66,0.37150001525878906,-0.9861394762992859,1.432072639465332,0.17937050759792328,-0.9606585502624512,-0.11403950303792953
1.68,0.39386990666389465,-1.1873353719711304,1.5139623880386353,0.11611350625753403,-0.9845705032348633,-0.15192049741744995
1.7,0.34273871779441833,-1.3045109510421753,1.6716169118881226,0.04892200231552124,-0.9113094806671143,-0.14728449285030365
1.72,0.5760247707366943,-1.6975820064544678,1.9677517414093018,0.006191499996930361,-0.910333514213562,-0.1101355031132698
1.74,0.5664376616477966,-1.35990309715271,1.8644241094589233,-0.06831999868154526,-1.0141555070877075,-0.2437559962272644
1.76,0.4077179431915283,-0.8657681345939636,1.6801388263702393,-0.10299849510192871,-1.0517619848251343,-0.21956948935985565
1.78,-0.1950708031654358,0.29187384247779846,0.8387378454208374,-0.16482199728488922,-0.9731025695800781,-0.1416420042514801
1.8,-0.6710968017578125,-0.011584409512579441,0.3307548463344574,-0.17872999608516693,-0.9110655188560486,-0.12456199526786804
1.82,-1.0780158042907715,-0.19160878658294678,-0.24753352999687195,-0.17872999608516693,-0.9110655188560486,-0.12456199526786804
1.84,-1.1334079504013062,-0.1564560979604721,-0.6031882166862488,-0.1870260089635849,-1.0427340269088745,-0.18562299013137817
1.86,-0.5274235010147095,-0.09893351793289185,-0.947258472442627,-0.19092999398708344,-0.8363100290298462,-0.32753950357437134
1.88,0.32036882638931274,-0.10106398165225983,-0.38601380586624146,-0.05364949628710747,-0.8922470211982727,-0.38054850697517395
1.9,0.6280879974365234,0.0011983871227130294,-0.23794642090797424,-0.05364949628710747,-0.8922470211982727,-0.38054850697517395
1.92,0.5344806909561157,-0.10212921351194382,-0.20172850787639618,-0.09226249903440475,-0.9230215549468994,-0.20395350456237793
1.94,0.43860968947410583,0.07150376588106155,-0.22516362369060516,-0.09226249903440475,-0.9230215549468994,-0.20395350456237793
1.96,0.2905423045158386,-0.04673709720373154,-0.19107617437839508,-0.055876001715660095,-0.9469640254974365,-0.2454639971256256
1.98,0.20532366633415222,-0.019041040912270546,-0.17296721041202545,-0.03705750033259392,-0.9838384985923767,-0.1463085114955902
2,0.1446053832769394,-0.08721595257520676,-0.15911918878555298,0.003263500053435564,-0.9885050058364868,-0.1726910024881363
2.02,0.1126483902335167,-0.22463101148605347,-0.1463363915681839,-0.03168949857354164,-0.9726144671440125,-0.15875250101089478
2.04,0.1850842386484146,-0.19160878658294678,-0.13248835504055023,-0.016530999913811684,-0.96236652135849,-0.1311500072479248
2.06,0.21597599983215332,-0.1777607649564743,-0.10053136944770813,-0.044865500181913376,-0.9555040001869202,-0.19221100211143494
2.08,0.20958459377288818,-0.14473854005336761,-0.09413997083902359,-0.044865500181913376,-0.9555040001869202,-0.19221100211143494
2.1,0.24793298542499542,-0.10106398165225983,-0.10585752874612808,-0.07124799489974976,-0.9818865656852722,-0.15850849449634552
2.12,0.2287587970495224,-0.0712374597787857,-0.09413997083902359,-0.05782800167798996,-0.972370445728302,-0.14484450221061707
2.14,0.2521939277648926,-0.059519894421100616,-0.09094426780939102,-0.056363996118307114,-0.9726144671440125,-0.152164489030838
2.16,0.2394111156463623,-0.045671865344047546,-0.0824224054813385,-0.04584150016307831,-0.9587064981460571,-0.13725000619888306
2.18,0.2404763549566269,-0.020106272771954536,-0.07496577501296997,-0.05291750282049179,-0.9425719976425171,-0.09183549880981445
2.2,0.2500634491443634,-0.025432437658309937,-0.05898727849125862,-0.0365694984793663,-0.9574559926986694,-0.1306620091199875
2.22,0.2628462612628937,-0.038215234875679016,-0.04087831825017929,-0.053893499076366425,-0.9650505185127258,-0.10964750498533249
2.24,0.24899822473526,-0.12982527911663055,-0.04940018057823181,-0.04803749918937683,-0.9547720551490784,-0.14484450221061707
2.26,0.272433340549469,0.025698747485876083,-0.05366111174225807,-0.04803749918937683,-0.9547720551490784,-0.14484450221061707
2.28,0.3011946380138397,0.043807707726955414,-0.07709623873233795,-0.04291350021958351,-0.9789584875106812,-0.13017401099205017
2.3,0.3778914213180542,0.09387365728616714,-0.11011846363544464,-0.048525501042604446,-0.9813984632492065,-0.1499684900045395
2.32,0.464175283908844,0.1800243854522705,-0.10692276805639267,-0.026778999716043472,-1.0129050016403198,-0.11111149191856384
2.34,0.4343487620353699,0.2119813710451126,-0.07390054315328598,-0.07710400223731995,-0.979446530342102,-0.1160220056772232
2.36,0.4109136462211609,0.20878566801548004,-0.04194355010986328,-0.07515200227499008,-1.0026570558547974,-0.0844849944114685
2.38,0.40345701575279236,0.29400432109832764,-0.06324820965528488,-0.04193750023841858,-1.0036330223083496,-0.04517050087451935
2.4,0.4205007255077362,0.24074266850948334,-0.10479229688644409,0.002531500067561865,-0.9823745489120483,-0.005581500008702278
2.42,0.4109136462211609,0.1810896098613739,-0.13035789132118225,0.005459500011056662,-0.9965570569038391,-0.022935999557375908
2.44,0.4716319143772125,-0.12769481539726257,-0.17509767413139343,0.028669999912381172,-0.9552600383758545,-0.108427494764328
2.46,0.40558746457099915,0.18961147964000702,-0.08455286920070648,0.0035075002815574408,-1.0058289766311646,0.01296250056475401
2.48,0.4545882046222687,0.1597849577665329,-0.06431344151496887,0.0003355000226292759,-0.9936290383338928,0.02202100120484829
2.5,0.4940018057823181,0.010785484686493874,-0.03342168778181076,0.0003355000226292759,-0.9936290383338928,0.02202100120484829
2.52,0.50252366065979,-0.06271559745073318,0.02197043038904667,0.013999500311911106,-0.9902129769325256,-0.010247999802231789
2.54,0.5227631330490112,-0.10106398165225983,-0.03874785080552101,0.04404200240969658,-0.9970450401306152,0.04251699894666672
2.56,0.44819679856300354,-0.026497671380639076,-0.039813082665205,-0.017506999894976616,-0.9931409955024719,0.036416999995708466
2.58,0.4066527187824249,-0.11065108329057693,-0.039813082665205,-0.00823500007390976,-0.9960689544677734,0.07304749637842178
2.6,0.34273871779441833,-0.006258244160562754,0.04114462435245514,-0.012870999053120613,-0.9840825200080872,0.04471300169825554
2.62,0.3576519787311554,-0.17989122867584229,0.02197043038904667,0.018635500222444534,-0.961390495300293,0.06865549832582474
2.64,0.27775952219963074,0.0001331541279796511,-0.012117025442421436,-0.03144549950957298,-0.9928970336914062,0.07991000264883041
2.66,0.23195448517799377,-0.07762885838747025,-0.03235645219683647,-0.058803997933864594,-1.0131795406341553,0.08844999969005585
2.68,0.14780108630657196,-0.017975807189941406,-0.04300878196954727,-0.006770999636501074,-1.0029009580612183,0.09552599489688873
2.7,0.07216953486204147,0.015046416781842709,-0.0504654161632061,-0.07905599474906921,-1.0068050622940063,0.11483249813318253
2.72,0.009320789016783237,0.0011983871227130294,-0.04940018057823181,-0.015554999932646751,-0.9850584864616394,0.09723400324583054
2.74,-0.07469946891069412,0.0011983871227130294,-0.039813082665205,-0.017994999885559082,-0.9789584875106812,0.0899140015244484
2.76,-0.1311568170785904,-0.011584409512579441,-0.02916075475513935,-0.0040870001539587975,-0.9855464696884155,0.09406200051307678
2.78,-0.13328728079795837,-0.007323476951569319,-0.02276935614645481,0.003019500058144331,-0.9813984632492065,0.09088999778032303
2.8,-0.13861344754695892,-0.038215234875679016,-0.02276935614645481,0.0027754998300224543,-0.9860649704933167,0.08430200070142746
2.82,-0.09706936031579971,-0.07336792349815369,-0.02916075475513935,0.003995500039309263,-0.9972890019416809,0.08649799972772598
2.84,-0.1311568170785904,-0.08508548885583878,-0.01957365684211254,0.003995500039309263,-0.9972890019416809,0.08649799972772598
2.86,-0.18015754222869873,-0.07336792349815369,-0.01957365684211254,0.0013114999746903777,-0.9924090504646301,0.07329150289297104
2.88,-0.20998406410217285,-0.08402025699615479,-0.012117025442421436,0.0005794999888166785,-0.9943609833717346,0.06889950484037399
2.9,-0.2142449915409088,-0.08402025699615479,-0.014247491955757141,-0.0038429999258369207,-0.9909449815750122,0.060115497559309006
2.92,-0.21850591897964478,-0.09041165560483932,-0.012117025442421436,-0.0038429999258369207,-0.9867969751358032,0.056455500423908234
2.94,-0.22170162200927734,-0.0936073511838913,-0.01637795753777027,-0.0038429999258369207,-0.9867969751358032,0.056455500423908234
2.96,-0.20678836107254028,-0.09573781490325928,-0.02703028731048107,0.0000914999982342124,-0.9887490272521973,0.042760998010635376
2.98,-0.18974463641643524,-0.06804175674915314,-0.02916075475513935,-0.0026229999493807554,-0.9816425442695618,0.0344650000333786
3,-0.23022349178791046,-0.08615072071552277,-0.015312724746763706,-0.001158999977633357,-0.9911889433860779,0.032756999135017395
3.02,-0.23128871619701385,-0.06804175674915314,-0.01637795753777027,-0.0026229999493807554,-0.9821305274963379,0.02836500108242035
3.04,-0.24300628900527954,-0.050998032093048096,-0.007856093347072601,0.004239500034600496,-0.9872849583625793,0.017842499539256096
3.06,-0.24939768016338348,-0.04673709720373154,-0.005725627299398184,-0.0026229999493807554,-0.9897249937057495,0.013938499614596367
3.08,-0.24939768016338348,-0.04993279650807381,-0.012117025442421436,0.0020435000769793987,-0.9894810318946838,0.009546499699354172
3.1,-0.25365862250328064,-0.038215234875679016,-0.01744319126009941,0.011803499422967434,-0.987773060798645,0.010522499680519104
3.12,-0.25046291947364807,-0.03928046673536301,-0.0238345880061388,0.009363500401377678,-0.9833505153656006,0.006374500226229429
3.14,-0.2366148829460144,-0.029693370684981346,-0.02063889056444168,0.0027754998300224543,-0.9811544418334961,-0.0028975000604987144
3.16,-0.21317975223064423,-0.015845341607928276,-0.01637795753777027,0.0027754998300224543,-0.9809104800224304,-0.017323998734354973
3.18,-0.20891882479190826,-0.015845341607928276,-0.007856093347072601,0.009607499465346336,-0.9828625321388245,-0.019032001495361328
3.2,-0.19933173060417175,-0.027562905102968216,-0.004660394508391619,0.009607499465346336,-0.9828625321388245,-0.019032001495361328
3.22,-0.18867939710617065,-0.025432437658309937,-0.0185084231197834,0.012047499418258667,-0.9865529537200928,-0.02757200039923191
3.24,-0.18122276663780212,-0.03288906812667847,-0.0238345880061388,0.012291500344872475,-0.9907009601593018,-0.0407785028219223
3.26,-0.17483137547969818,-0.038215234875679016,-0.0185084231197834,0.012291500344872475,-0.9907009601593018,-0.0407785028219223
3.28,-0.16630950570106506,-0.021171506494283676,-0.005725627299398184,0.011315500363707542,-0.9760304689407349,-0.04639049991965294
3.3,-0.1620485782623291,-0.029693370684981346,-0.004660394508391619,0.007655499503016472,-0.9770064353942871,-0.052002497017383575
3.32,-0.14500483870506287,-0.023301972076296806,-0.012117025442421436,0.007655499503016472,-0.9770064353942871,-0.052002497017383575
3.34,-0.13435252010822296,-0.025432437658309937,-0.0185084231197834,0.016439499333500862,-0.9745665192604065,-0.05346650257706642
3.36,-0.12156971544027328,-0.033954303711652756,-0.02063889056444168,0.015219499357044697,-0.9728584289550781,-0.06005449965596199
3.38,-0.09600412845611572,-0.027562905102968216,-0.006790860556066036,0.005947500001639128,-0.9750545024871826,-0.061793003231287
3.4,-0.08215609937906265,-0.009453942999243736,-0.011051792651414871,0.009607499465346336,-0.9735905528068542,-0.06423300504684448
3.42,-0.06298190355300903,-0.005193010903894901,-0.011051792651414871,0.009607499465346336,-0.9735905528068542,-0.06423300504684448
3.44,-0.04913387447595596,-0.0030625448562204838,-0.009986559860408306,0.01033950038254261,-0.9782265424728394,-0.06545300036668777
3.46,-0.034220609813928604,0.00226362026296556,-0.015312724746763706,0.009607499465346336,-0.972370445728302,-0.06398900598287582
3.48,-0.020372580736875534,0.007589785382151604,-0.015312724746763706,0.012047499418258667,-0.9755424857139587,-0.07008899748325348
3.5,-0.011850717477500439,0.007589785382151604,-0.014247491955757141,0.015219499357044697,-0.9755424857139587,-0.06594099849462509
3.52,0.0061250897124409676,0.010785484686493874,-0.012117025442421436,0.015219499357044697,-0.9755424857139587,-0.06594099849462509
3.54,0.016777420416474342,0.009720250964164734,-0.009986559860408306,0.01424350030720234,-0.9696865081787109,-0.06960099935531616
3.56,0.03275591507554054,0.011850717477500439,-0.005725627299398184,0.015951499342918396,-0.9733465313911438,-0.06057300046086311
3.58,0.0476691760122776,0.015046416781842709,-0.0025299284607172012,0.013999500311911106,-0.9745665192604065,-0.06325700134038925
3.6,0.06258244067430496,0.018242115154862404,-0.0025299284607172012,0.010583500377833843,-0.9774945378303528,-0.06813699752092361
3.62,0.07536523789167404,0.020372580736875534,-0.008921326138079166,0.012047499418258667,-0.9801784753799438,-0.05859050154685974
3.64,0.08814803510904312,0.018242115154862404,-0.008921326138079166,0.013755499385297298,-0.9792025089263916,-0.06130500137805939
3.66,0.1009308323264122,0.022503048181533813,-0.0025299284607172012,0.011803499422967434,-0.9777385592460632,-0.05761449784040451
3.68,0.14567062258720398,0.020372580736875534,-0.006790860556066036,0.012047499418258667,-0.9813984632492065,-0.05761449784040451
3.7,0.12969212234020233,0.03848154470324516,0.005991935729980469,0.017659500241279602,-0.9728584289550781,-0.04199850186705589
3.72,0.12436595559120178,0.036351077258586884,0.012383334338665009,0.015463500283658504,-0.9811544418334961,-0.05005050078034401
3.74,0.15099677443504333,0.03528584539890289,0.014513799920678139,0.016439499333500862,-0.9799345135688782,-0.04956250265240669
3.76,0.17230144143104553,0.03954677656292915,0.011318100616335869,0.014731500297784805,-0.9831064939498901,-0.036630500108003616
3.78,0.18082331120967865,0.041677240282297134,0.011318100616335869,0.014731500297784805,-0.9850584864616394,-0.03147600218653679
3.8,0.164844810962677,0.03954677656292915,0.011318100616335869,0.013755499385297298,-0.9821305274963379,-0.03001200035214424
3.82,0.17762760818004608,0.03528584539890289,0.02090519852936268,0.013023500330746174,-0.9850584864616394,-0.027327999472618103
3.84,0.22343263030052185,0.031024912372231483,0.013448567129671574,0.01790350116789341,-0.994117021560669,-0.021716000512242317
3.86,0.21064983308315277,0.03528584539890289,0.02623136341571808,0.013267499394714832,-0.9813984632492065,-0.010247999802231789
3.88,0.1957365721464157,0.034220609813928604,0.02516612969338894,0.018635500222444534,-0.9926530122756958,-0.005093500018119812
3.9,0.19041040539741516,0.028894444927573204,0.02942706272006035,0.01668350026011467,-0.9870409369468689,-0.0026535000652074814
3.92,0.20212796330451965,0.022503048181533813,0.02942706272006035,0.016439499333500862,-0.9924090504646301,-0.0019214999629184604
3.94,0.21064983308315277,0.04274247586727142,0.02836182899773121,0.011315500363707542,-0.9813984632492065,-0.009271999821066856
3.96,0.18827994167804718,0.024633513763546944,0.03688369318842888,0.008631499484181404,-0.9880170226097107,0.007106499746441841
3.98,0.17762760818004608,0.036351077258586884,0.03581846132874489,0.006191499996930361,-0.98996901512146,0.012718499638140202
4,0.18934516608715057,0.025698747485876083,0.03688369318842888,0.00692349998280406,-0.994117021560669,0.01857450045645237
4.02,0.19360610842704773,0.044872939586639404,0.03581846132874489,0.00789950042963028,-0.9840825200080872,0.020526500418782234
4.04,0.1754971444606781,0.043807707726955414,0.0347532257437706,0.0027754998300224543,-0.9928970336914062,0.026657000184059143
4.06,0.16697527468204498,0.022503048181533813,0.03901416063308716,0.0035075002815574408,-0.9968010187149048,0.04105300083756447
4.08,0.15738818049430847,0.03848154470324516,0.03688369318842888,-0.0026229999493807554,-0.9816425442695618,0.03202500194311142
4.1,0.15099677443504333,0.024633513763546944,0.03368799388408661,0.002287500072270632,-0.9953369498252869,0.04227299988269806
4.12,0.12969212234020233,0.034220609813928604,0.03794892504811287,0.004239500034600496,-0.98996901512146,0.04642099887132645
4.14,0.08708280324935913,0.019307348877191544,0.03581846132874489,0.002531500067561865,-0.9904569983482361,0.04739700257778168
4.16,0.07216953486204147,0.023568280041217804,0.03155753016471863,-0.0009150000405497849,-0.9953369498252869,0.05450350418686867
4.18,0.06258244067430496,0.008655018173158169,0.02516612969338894,-0.0016469999682158232,-0.9972890019416809,0.05669950321316719
4.2,0.08495233207941055,0.013981183059513569,0.012383334338665009,-0.00506300013512373,-1.0009490251541138,0.053771499544382095
4.22,0.07962616533041,-0.0723026916384697,0.01877473294734955,-0.0033550001680850983,-0.9872849583625793,0.06548349559307098
4.24,0.010386021807789803,0.004394086077809334,0.004926702938973904,-0.001891000079922378,-1.0021690130233765,0.05035549774765968
4.26,-0.008655018173158169,0.004394086077809334,0.007057168986648321,0.0013114999746903777,-1.0043649673461914,0.05816350132226944
4.28,-0.037416309118270874,-0.001997311832383275,-0.009986559860408306,0.0013114999746903777,-1.0043649673461914,0.05816350132226944
4.3,-0.058720968663692474,-0.008388710208237171,-0.02596505545079708,-0.001158999977633357,-1.0026570558547974,0.05059950053691864
4.32,-0.09067796170711517,-0.025432437658309937,-0.0504654161632061,0.003263500053435564,-1.0011930465698242,0.0584075003862381
4.34,-0.1290263533592224,-0.033954303711652756,-0.07603100687265396,-0.0033550001680850983,-0.9960689544677734,0.06450749933719635
4.36,-0.16950520873069763,-0.031823836266994476,-0.09413997083902359,-0.019214998930692673,-0.9968010187149048,0.0554795004427433
4.38,-0.16630950570106506,-0.1255643367767334,-0.08881380409002304,-0.10690250247716904,-1.0070489645004272,0.03129299730062485
4.4,-0.22063638269901276,0.040612008422613144,-0.08135717362165451,-0.015310999006032944,-0.9762744903564453,0.05035549774765968
4.42,-0.19720126688480377,0.053394805639982224,-0.06218297779560089,-0.00042699999175965786,-0.9606585502624512,0.056211501359939575
4.44,-0.11837401986122131,0.007589785382151604,-0.05153064802289009,0.020099500194191933,-0.9555040001869202,0.04764099791646004
4.46,-0.08535179495811462,-0.020106272771954536,-0.06005251035094261,0.036965999752283096,-0.9716385006904602,0.02836500108242035
4.48,-0.0981345921754837,-0.05632419511675835,-0.05898727849125862,0.052581995725631714,-0.9968010187149048,0.013206499628722668
4.5,-0.07256899774074554,-0.06378082931041718,-0.0611177459359169,0.047213997691869736,-1.001924991607666,-0.014640000648796558
4.52,-0.044872939586639404,-0.044606633484363556,-0.05366111174225807,0.03306199982762337,-0.995824933052063,-0.013420000672340393
4.54,0.06364767253398895,-0.38548120856285095,-0.02809552103281021,0.06822849810123444,-0.9789584875106812,0.01589049957692623
4.56,-0.07150376588106155,0.031024912372231483,-0.03342168778181076,-0.00042699999175965786,-0.9902129769325256,-0.02000799961388111
4.58,-0.033155377954244614,0.020372580736875534,-0.0185084231197834,0.018879499286413193,-0.9662705063819885,0.00222649984061718
4.6,0.0050598569214344025,0.037416309118270874,0.0038614696823060513,0.019611500203609467,-0.9459880590438843,0.008326499722898006
4.62,0.06364767253398895,0.066177599132061,0.02197043038904667,0.023271499201655388,-0.9506240487098694,0.017842499539256096
4.64,0.11477886140346527,0.0768299326300621,0.02090519852936268,0.027938000857830048,-0.9774945378303528,0.024948999285697937
4.66,0.14034445583820343,0.08002562820911407,0.000665770610794425,0.010827499441802502,-1.0033890008926392,0.034953001886606216
4.68,0.12649641931056976,0.06404713541269302,-0.02489982172846794,0.022295501083135605,-1.012416958808899,0.04617699980735779
4.7,0.06577813625335693,0.028894444927573204,-0.04407401755452156,0.010827499441802502,-1.0153754949569702,0.05474749580025673
4.72,-0.0011983871227130294,0.023568280041217804,-0.05259587988257408,0.0027754998300224543,-0.9968010187149048,0.030316999182105064
4.74,-0.11837401986122131,0.006524552125483751,-0.07070484012365341,0.0003355000226292759,-0.9757865071296692,0.05743149667978287
4.76,-0.15991811454296112,-0.025432437658309937,-0.08774857223033905,0.009119500406086445,-0.9638304710388184,0.05279549956321716
4.78,-0.1950708031654358,-0.08508548885583878,-0.1250317245721817,0.03257400169968605,-0.994117021560669,0.03714900091290474
4.8,-0.18974463641643524,-0.13302096724510193,-0.15166255831718445,0.036965999752283096,-1.0029009580612183,0.025436999276280403
4.82,-0.16950520873069763,-0.1671084314584732,-0.1452711522579193,0.036965999752283096,-0.9933850169181824,0.013938499614596367
4.84,-0.15778763592243195,-0.14793424308300018,-0.11650986224412918,0.03379400074481964,-0.9843264818191528,0.0029585000593215227
4.86,-0.13861344754695892,-0.07549838721752167,-0.10585752874612808,0.028425998985767365,-1.0072929859161377,-0.02537599951028824
4.88,-0.14287437498569489,-0.010519175790250301,-0.1452711522579193,0.032329998910427094,-1.016351580619812,-0.025619998574256897
4.9,-0.17696183919906616,-0.004127778112888336,-0.17616291344165802,0.0386740006506443,-1.0170835256576538,-0.01634800061583519
4.92,-0.18974463641643524,-0.019041040912270546,-0.1889457106590271,0.047213997691869736,-0.9960689544677734,-0.02366800047457218
4.94,-0.17589659988880157,-0.016910573467612267,-0.19214141368865967,0.0731084942817688,-0.9621224999427795,-0.02635199949145317
4.96,-0.14393961429595947,-0.028628136962652206,-0.16124965250492096,0.08042849600315094,-0.9486719965934753,-0.02000799961388111
4.98,-0.11091738939285278,-0.043541401624679565,-0.11757509410381317,0.09046300500631332,-0.9396439790725708,-0.023180000483989716
5,-0.10239552706480026,-0.058454662561416626,-0.08135717362165451,0.0836310014128685,-0.9369600415229797,-0.02659600041806698
5.02,-0.11091738939285278,-0.057389430701732635,-0.04300878196954727,0.061884500086307526,-0.9362279772758484,-0.022447999566793442
5.04,-0.11837401986122131,-0.03608476743102074,-0.02916075475513935,0.04672599956393242,-0.9545280337333679,-0.03245199844241142
5.06,-0.14393961429595947,0.008655018173158169,-0.03129122033715248,0.08411899954080582,-0.9389119744300842,0.0554795004427433
5.08,-0.362312376499176,-0.1042596846818924,-0.1250317245721817,0.07823249697685242,-1.0111969709396362,-0.020740000531077385
5.1,-0.4613790512084961,-0.5994598865509033,-0.22942456603050232,0.07652450352907181,-0.9706624746322632,-0.06398900598287582
5.12,-0.362312376499176,-0.9829437732696533,-0.0930747389793396,0.08091650158166885,-0.903471052646637,-0.10135149955749512
5.14,0.09773512929677963,0.07256899774074554,0.014513799920678139,0.08091650158166885,-0.903471052646637,-0.10135149955749512
5.16,0.5153064727783203,0.1480673849582672,0.10505861043930054,0.09997899830341339,-0.9589504599571228,-0.23668000102043152
5.18,0.5067846179008484,0.10865376889705658,0.07416684925556183,0.0929030030965805,-1.006072998046875,-0.04468249902129173
5.2,0.4609795808792114,0.008655018173158169,0.03155753016471863,0.06359250098466873,-1.0390435457229614,-0.03638650104403496
5.22,0.4002613127231598,-0.035019535571336746,0.02942706272006035,0.06774049997329712,-0.9503800272941589,-0.05224649980664253
5.24,0.37043479084968567,-0.1255643367767334,0.05392742156982422,0.01107150036841631,-0.978470504283905,-0.0332145020365715
5.26,0.20958459377288818,-0.030758604407310486,0.009187635034322739,0.01107150036841631,-0.978470504283905,-0.0332145020365715
5.28,0.07430000603199005,-0.013714875094592571,0.012383334338665009,0.05529649555683136,-0.9557480216026306,-0.01390800066292286
5.3,0.0061250897124409676,0.0011983871227130294,0.03901416063308716,0.0626165047287941,-1.0295275449752808,-0.008539999835193157
5.32,0.012516488321125507,-0.005193010903894901,-0.02170412242412567,0.12953349947929382,-0.9411080479621887,-0.001189500093460083
5.34,0.10306129604578018,0.08854749798774719,0.004926702938973904,0.08018450438976288,-0.9831064939498901,-0.0021654998417943716
5.36,0.17336668074131012,0.06937330216169357,-0.03874785080552101,0.15274399518966675,-0.98066645860672,0.04937949776649475
5.38,0.22449785470962524,-0.40785109996795654,-0.13035789132118225,0.07920850068330765,-1.034651517868042,0.027876999229192734
5.4,0.10732222348451614,-0.37482887506484985,-0.2326202541589737,0.06432449817657471,-1.0038769245147705,0.006374500226229429
5.42,0.04447348043322563,-0.29067546129226685,-0.1995980441570282,0.07701250165700912,-0.8959070444107056,-0.004361500032246113
5.44,-0.0011983871227130294,-0.033954303711652756,-0.04087831825017929,0.07701250165700912,-0.8959070444107056,-0.004361500032246113
5.46,-0.11730878800153732,-0.04993279650807381,0.013448567129671574,0.08802299946546555,-0.8985909819602966,0.009546499699354172
5.48,-0.600924551486969,-0.2938711643218994,-0.05898727849125862,0.06481250375509262,-0.9266815185546875,-0.049318499863147736
5.5,-1.3889306783676147,-0.6420692205429077,-0.2326202541589737,0.017659500241279602,-0.8492420315742493,0.0029585000593215227
5.52,-1.8851960897445679,-1.184139609336853,-0.2326202541589737,0.02424750104546547,-0.8898069858551025,0.06426350027322769
5.54,-2.0332634449005127,-1.1425955295562744,-0.2006632685661316,0.0987589955329895,-1.113798975944519,-0.11577799916267395
5.56,-1.7798712253570557,-1.266162633895874,-0.31144750118255615,0.11464949697256088,-1.0827804803848267,-0.39058300852775574
5.58,-0.5593804717063904,-0.447264701128006,-0.07496577501296997,0.05014200136065483,-1.1003789901733398,-0.016103999689221382
5.6,0.18827994167804718,-0.17243459820747375,0.08588441461324692,0.10952550917863846,-1.0046089887619019,-0.2525705099105835
5.62,0.6291532516479492,-0.2097177505493164,0.1402112990617752,0.17668651044368744,-1.055177927017212,-0.17000699043273926
5.64,0.7420679330825806,-0.10639014840126038,0.05818835273385048,0.1500599980354309,-0.9630984663963318,-0.2046855092048645
5.66,0.5632419586181641,-0.03928046673536301,-0.03129122033715248,0.07920850068330765,-0.9198495149612427,-0.16363251209259033
5.68,0.35019534826278687,-0.10639014840126038,-0.04833494871854782,0.02668749913573265,-0.9484279751777649,-0.14090999960899353
5.7,0.2298240214586258,-0.028628136962652206,-0.0014646954368799925,0.02668749913573265,-0.9484279751777649,-0.14090999960899353
5.72,0.1861494779586792,-0.03608476743102074,0.02090519852936268,0.06359250098466873,-0.9911889433860779,-0.1357859969139099
5.74,0.11477886140346527,-0.013714875094592571,0.02303566411137581,0.07262050360441208,-0.9701744914054871,-0.11086750030517578
5.76,0.08175663650035858,0.008655018173158169,0.011318100616335869,0.07262050360441208,-0.9701744914054871,-0.11086750030517578
5.78,0.07536523789167404,0.036351077258586884,-0.012117025442421436,0.07896450161933899,-0.9537959694862366,-0.10135149955749512
5.8,0.03595161437988281,0.057655736804008484,-0.03448691964149475,0.09485500305891037,-0.9706624746322632,-0.09110350161790848
5.82,0.013581721112132072,0.058720968663692474,-0.02489982172846794,0.09631899744272232,-0.9657825231552124,-0.08841949701309204
5.84,0.06364767253398895,0.05659050494432449,0.02197043038904667,0.09997899830341339,-0.9660264849662781,-0.10037549585103989
5.86,0.1424749195575714,0.05659050494432449,0.05286218971014023,0.08631499856710434,-0.9638304710388184,-0.11797399818897247
5.88,0.11797455698251724,0.04274247586727142,0.04007939249277115,0.0806724950671196,-0.9811544418334961,-0.12236599624156952
5.9,0.03595161437988281,0.034220609813928604,0.008122402243316174,0.08485100418329239,-0.982618510723114,-0.12065799534320831
5.92,-0.006524552125483751,0.024633513763546944,0.0038614696823060513,0.08485100418329239,-0.982618510723114,-0.12065799534320831
5.94,-0.022503048181533813,0.024633513763546944,0.01983996480703354,0.09143900126218796,-0.9928970336914062,-0.11403950303792953
5.96,0.018907885998487473,0.009720250964164734,0.02623136341571808,0.09534300118684769,-0.9823745489120483,-0.11233150213956833
5.98,-0.0001331541279796511,-0.007323476951569319,-0.009986559860408306,0.09680700302124023,-0.9840825200080872,-0.10915949940681458
6,0.019973119720816612,-0.010519175790250301,0.01877473294734955,0.10071099549531937,-0.9684664607048035,-0.10452349483966827
6.02,0.1009308323264122,-0.020106272771954536,0.05925358831882477,0.10412700474262238,-0.9718824625015259,-0.09671550244092941
6.04,0.17123620212078094,-0.021171506494283676,0.07629731297492981,0.08265500515699387,-0.9726144671440125,-0.1037914976477623
6.06,0.1424749195575714,0.0001331541279796511,0.02942706272006035,0.059688501060009,-0.9657825231552124,-0.09476349502801895
6.08,0.03808208182454109,0.009720250964164734,-0.02809552103281021,0.059688501060009,-0.9657825231552124,-0.09476349502801895
6.1,-0.061916667968034744,0.018242115154862404,-0.06750914454460144,0.06822849810123444,-0.9860649704933167,-0.0991555005311966
6.12,-0.1194392517209053,0.019307348877191544,-0.07070484012365341,0.08485100418329239,-1.0014370679855347,-0.08375300467014313
6.14,-0.13754820823669434,0.04274247586727142,-0.01744319126009941,0.08485100418329239,-1.0014370679855347,-0.08375300467014313
6.16,-0.13328728079795837,-0.008388710208237171,0.009187635034322739,0.1092815026640892,-0.9860649704933167,-0.08768749982118607
6.18,-0.028894444927573204,-0.04673709720373154,-0.0003994623839389533,0.10437100380659103,-0.9855464696884155,-0.123586006462574
6.2,-0.007589785382151604,-0.015845341607928276,-0.01637795753777027,0.10437100380659103,-0.9855464696884155,-0.123586006462574
6.22,0.0018641578499227762,-0.014780107885599136,-0.007856093347072601,0.095830999314785,-0.9828625321388245,-0.11330750584602356
6.24,0.009320789016783237,-0.035019535571336746,0.01664426550269127,0.0987589955329895,-0.9533079862594604,-0.1142834946513176
6.26,-0.007589785382151604,-0.08402025699615479,0.04860125854611397,0.10022300481796265,-0.955016016960144,-0.11355149745941162
6.28,-0.031024912372231483,-0.16178226470947266,0.09547150880098343,0.0894870012998581,-0.9411080479621887,-0.11821800470352173
6.3,-0.011850717477500439,-0.27043604850769043,0.18069015443325043,0.1180654987692833,-0.9589504599571228,-0.11062350869178772
6.32,0.028494983911514282,-0.4461994767189026,0.22636201977729797,0.11123350262641907,-0.9748104810714722,-0.1067194938659668
6.34,-0.054460037499666214,-0.46111273765563965,0.18175537884235382,0.06017650291323662,-0.9735905528068542,-0.0541984960436821
6.36,-0.17802706360816956,-0.24380521476268768,0.11784140020608902,0.0731084942817688,-0.9840825200080872,-0.14115400612354279
6.38,-0.18015754222869873,-0.17456506192684174,0.07203638553619385,0.050873998552560806,-0.9684664607048035,-0.11773000657558441
6.4,-0.1620485782623291,-0.08721595257520676,0.05179695412516594,0.03525800257921219,-0.9670025110244751,-0.11529000103473663
6.42,-0.14500483870506287,-0.013714875094592571,0.04007939249277115,0.03306199982762337,-0.955016016960144,-0.11675400286912918
6.44,-0.13222205638885498,0.067242830991745,0.02197043038904667,0.03525800257921219,-0.9684664607048035,-0.12065799534320831
6.46,-0.15352670848369598,0.1171756312251091,0.005991935729980469,0.04550600051879883,-0.9591944813728333,-0.1130634993314743
6.48,-0.18015754222869873,0.1374150663614273,0.0038614696823060513,0.05111800134181976,-0.9748104810714722,-0.13603000342845917
6.5,-0.1620485782623291,0.14380645751953125,0.0017310036346316338,0.05749250203371048,-0.9811544418334961,-0.13944600522518158
6.52,-0.08641702681779861,0.10026505589485168,0.004926702938973904,0.05749250203371048,-0.9955809712409973,-0.14899249374866486
6.54,-0.006524552125483751,0.09280842542648315,0.008122402243316174,0.05602850019931793,-0.994117021560669,-0.1533845067024231
6.56,0.11690932512283325,0.07576470077037811,0.01664426550269127,0.05233800411224365,-0.9811544418334961,-0.16046050190925598
6.58,0.18295377492904663,0.07363422960042953,0.015579032711684704,0.0718884989619255,-0.9728584289550781,-0.1580204963684082
6.6,0.24899822473526,0.061916667968034744,0.01770949922502041,0.07384049892425537,-0.9687105417251587,-0.14017799496650696
6.62,0.28521615266799927,0.07150376588106155,0.03368799388408661,0.0806724950671196,-0.9589504599571228,-0.13481000065803528
6.64,0.26710718870162964,0.061916667968034744,0.05286218971014023,0.09436699748039246,-0.9645625352859497,-0.1248060017824173
6.66,0.22556309401988983,0.050199106335639954,0.06138405203819275,0.07823249697685242,-0.9611465334892273,-0.11943800002336502
6.68,0.17017097771167755,0.031024912372231483,0.07629731297492981,0.05014200136065483,-0.9674904942512512,-0.10159549862146378
6.7,0.12330072373151779,0.021437814459204674,0.08908011019229889,0.06237250193953514,-0.9630984663963318,-0.10330349951982498
6.72,0.11051792651414871,0.017176883295178413,0.10612384229898453,0.06456850469112396,-0.968222439289093,-0.10232749581336975
6.74,0.10945269465446472,0.013981183059513569,0.11464570462703705,0.05749250203371048,-0.9728584289550781,-0.09866750240325928
6.76,0.12969212234020233,0.0033288532868027687,0.12529803812503815,0.0550525039434433,-0.974322497844696,-0.09525150060653687
6.78,0.1552577167749405,-0.0030625448562204838,0.12742850184440613,0.04696999862790108,-0.9799345135688782,-0.09110350161790848
6.8,0.1861494779586792,-0.016910573467612267,0.12849372625350952,0.03989399969577789,-0.976518452167511,-0.08302100002765656
6.82,0.19147562980651855,-0.017975807189941406,0.12636326253414154,0.03379400074481964,-1.0011930465698242,-0.0886635035276413
6.84,0.1957365721464157,-0.006258244160562754,0.11038476973772049,0.02546750009059906,-0.9731025695800781,-0.08033700287342072
6.86,0.18295377492904663,0.017176883295178413,0.11038476973772049,0.030621998012065887,-0.9953369498252869,-0.0915914997458458
6.88,0.1754971444606781,0.015046416781842709,0.08694964647293091,0.032085999846458435,-0.9660264849662781,-0.08106900006532669
6.9,0.14993155002593994,0.026763979345560074,0.07949301600456238,0.023515500128269196,-0.9887490272521973,-0.07643300294876099
6.92,0.11051792651414871,0.048068638890981674,0.08694964647293091,0.019855501130223274,-0.9916769862174988,-0.06594099849462509
6.94,0.09986559301614761,0.037416309118270874,0.06564498692750931,0.03818599879741669,-0.9626104831695557,-0.06398900598287582
6.96,0.08069140464067459,0.041677240282297134,0.05499265342950821,0.02693150006234646,-0.9882610440254211,-0.04883049800992012
6.98,0.06790860742330551,0.044872939586639404,0.04007939249277115,0.022539500147104263,-0.9931409955024719,-0.04614650085568428
7,0.06471290439367294,0.043807707726955414,0.03368799388408661,0.019123500213027,-0.9928970336914062,-0.04468249902129173
7.02,0.0476691760122776,0.04274247586727142,0.02729659713804722,0.01790350116789341,-0.9924090504646301,-0.039314500987529755
7.04,0.03914731368422508,0.043807707726955414,0.02197043038904667,0.02693150006234646,-0.9887490272521973,-0.04151050001382828
7.06,0.029560215771198273,0.03954677656292915,0.008122402243316174,0.02644350193440914,-0.987773060798645,-0.0437064990401268
7.08,0.011451254598796368,0.029959678649902344,-0.008921326138079166,0.027175499126315117,-0.9924090504646301,-0.04492649808526039
7.1,-0.010785484686493874,0.018242115154862404,-0.01957365684211254,0.02546750009059906,-0.9926530122756958,-0.04956250265240669
7.12,-0.031024912372231483,0.009720250964164734,-0.02703028731048107,0.023271499201655388,-0.9916769862174988,-0.04517050087451935
7.14,-0.043807707726955414,0.0001331541279796511,-0.02703028731048107,0.02668749913573265,-0.9916769862174988,-0.045658502727746964
7.16,-0.05659050494432449,-0.0030625448562204838,-0.03342168778181076,0.02400350011885166,-0.9926530122756958,-0.04907450079917908
7.18,-0.067242830991745,-0.010519175790250301,-0.04087831825017929,0.02424750104546547,-0.9955809712409973,-0.0512705035507679
7.2,-0.08215609937906265,-0.016910573467612267,-0.0504654161632061,0.02644350193440914,-0.9902129769325256,-0.053222499787807465
7.22,-0.09600412845611572,-0.017975807189941406,-0.06005251035094261,0.025223499163985252,-0.9907009601593018,-0.057126499712467194
7.24,-0.10452599078416824,-0.021171506494283676,-0.06644391268491745,0.025223499163985252,-0.9907009601593018,-0.057126499712467194
7.26,-0.11837401986122131,-0.016910573467612267,-0.0717700719833374,0.028181998059153557,-0.9863089919090271,-0.06057300046086311
7.28,-0.12263495475053787,-0.015845341607928276,-0.07283531129360199,0.028181998059153557,-0.9863089919090271,-0.06057300046086311
7.3,-0.13328728079795837,-0.015845341607928276,-0.07922670245170593,0.034525997936725616,-0.9840825200080872,-0.06398900598287582
7.32,-0.14500483870506287,-0.013714875094592571,-0.08561810106039047,0.03257400169968605,-0.9892370104789734,-0.07155299931764603
7.34,-0.1418091505765915,-0.015845341607928276,-0.08987903594970703,0.04062599688768387,-0.9875290393829346,-0.07472499459981918
7.36,-0.15885287523269653,-0.014780107885599136,-0.09840089827775955,0.04062599688768387,-0.9865529537200928,-0.07911700010299683
7.38,-0.17057043313980103,-0.012649642303586006,-0.09840089827775955,0.042089998722076416,-0.9831064939498901,-0.07716500014066696
7.4,-0.17802706360816956,-0.014780107885599136,-0.10053136944770813,0.042089998722076416,-0.9831064939498901,-0.07716500014066696
7.42,-0.18015754222869873,-0.015845341607928276,-0.10053136944770813,0.045993998646736145,-0.9816425442695618,-0.08472900092601776
7.44,-0.18548369407653809,-0.012649642303586006,-0.09840089827775955,0.05038600042462349,-0.9840825200080872,-0.0962275043129921
7.46,-0.18654893338680267,-0.015845341607928276,-0.09733566641807556,0.05480850115418434,-0.9823745489120483,-0.0979354977607727
7.48,-0.18654893338680267,-0.021171506494283676,-0.10585752874612808,0.05602850019931793,-0.984814465045929,-0.09964349865913391
7.5,-0.18974463641643524,-0.020106272771954536,-0.10479229688644409,0.05602850019931793,-0.984814465045929,-0.09964349865913391
7.52,-0.18867939710617065,-0.025432437658309937,-0.09840089827775955,0.06652049720287323,-0.9721264839172363,-0.11403950303792953
7.54,-0.19080986082553864,-0.031823836266994476,-0.09840089827775955,0.06652049720287323,-0.9721264839172363,-0.11403950303792953
7.56,-0.18548369407653809,-0.03288906812667847,-0.09200949966907501,0.06408049911260605,-0.9745665192604065,-0.11821800470352173
7.58,-0.18015754222869873,-0.038215234875679016,-0.09094426780939102,0.0777445062994957,-0.9709064960479736,-0.1306620091199875
7.6,-0.1737661361694336,-0.040345702320337296,-0.08668334037065506,0.07506050169467926,-0.9721264839172363,-0.13188199698925018
7.62,-0.16524426639080048,-0.03928046673536301,-0.08029194176197052,0.07506050169467926,-0.9721264839172363,-0.13188199698925018
7.64,-0.15885287523269653,-0.045671865344047546,-0.07070484012365341,0.07408449798822403,-0.972370445728302,-0.13725000619888306
7.66,-0.15352670848369598,-0.043541401624679565,-0.06644391268491745,0.07506050169467926,-0.9704185128211975,-0.14338049292564392
7.68,-0.1407439112663269,-0.04673709720373154,-0.06324820965528488,0.0836310014128685,-0.9660264849662781,-0.14435650408267975
7.7,-0.1290263533592224,-0.047802332788705826,-0.05792204663157463,0.08289900422096252,-0.9648065567016602,-0.14533250033855438
7.72,-0.11624355614185333,-0.048867564648389816,-0.04726971685886383,0.0777445062994957,-0.961390495300293,-0.15484850108623505
7.74,-0.10239552706480026,-0.050998032093048096,-0.03448691964149475,0.07091249525547028,-0.9618784785270691,-0.15704450011253357
7.76,-0.09067796170711517,-0.050998032093048096,-0.02276935614645481,0.07920850068330765,-0.9552600383758545,-0.1597284972667694
7.78,-0.07256899774074554,-0.04673709720373154,-0.015312724746763706,0.07920850068330765,-0.957211971282959,-0.16021649539470673
7.8,-0.05232957378029823,-0.038215234875679016,-0.008921326138079166,0.07823249697685242,-0.9562360048294067,-0.16314449906349182
7.82,-0.034220609813928604,-0.028628136962652206,-0.0003994623839389533,0.07652450352907181,-0.9591944813728333,-0.1668044924736023
7.84,-0.021437814459204674,-0.020106272771954536,0.005991935729980469,0.0777445062994957,-0.9630984663963318,-0.1668044924736023
7.86,-0.012915950268507004,-0.010519175790250301,0.013448567129671574,0.07506050169467926,-0.9609025120735168,-0.16631650924682617
7.88,-0.0001331541279796511,0.0001331541279796511,0.015579032711684704,0.07506050169467926,-0.9596824645996094,-0.1638765037059784
7.9,0.017842652276158333,0.008655018173158169,0.02197043038904667,0.07628049701452255,-0.9594384431838989,-0.1650964915752411
7.92,0.03275591507554054,0.017176883295178413,0.02303566411137581,0.07628049701452255,-0.9594384431838989,-0.1650964915752411
7.94,0.04873441159725189,0.018242115154862404,0.02836182899773121,0.07628049701452255,-0.9584320187568665,-0.17073900997638702
7.96,0.05725627392530441,0.023568280041217804,0.0347532257437706,0.0748165026307106,-0.964318573474884,-0.1643645018339157
7.98,0.06577813625335693,0.029959678649902344,0.04327509179711342,0.0748165026307106,-0.964318573474884,-0.1643645018339157
8,0.07643046975135803,0.028894444927573204,0.0454055592417717,0.07506050169467926,-0.9621224999427795,-0.16778050363063812
8.02,0.08708280324935913,0.03209014609456062,0.05073172226548195,0.07506050169467926,-0.9621224999427795,-0.16778050363063812
8.04,0.10412652790546417,0.026763979345560074,0.0560578890144825,0.07725650072097778,-0.9630984663963318,-0.15558050572872162
8.06,0.1115831583738327,0.034220609813928604,0.06457975506782532,0.07676850259304047,-0.9618784785270691,-0.1550925076007843
8.08,0.12010502070188522,0.03209014609456062,0.06351451575756073,0.0718884989619255,-0.9687105417251587,-0.1458204984664917
8.1,0.12969212234020233,0.026763979345560074,0.06564498692750931,0.06920450180768967,-0.9667584896087646,-0.14188599586486816
8.12,0.1339530497789383,0.027829213067889214,0.06564498692750931,0.06871649622917175,-0.9677344560623169,-0.1428924947977066
8.14,0.14567062258720398,0.034220609813928604,0.07416684925556183,0.07066849619150162,-0.9718824625015259,-0.13846999406814575
8.16,0.15206201374530792,0.03528584539890289,0.07842778414487839,0.0672525018453598,-0.9662705063819885,-0.13651800155639648
8.18,0.15951864421367645,0.03954677656292915,0.08268871158361435,0.06383650004863739,-0.9711505174636841,-0.132858008146286
8.2,0.16377957165241241,0.044872939586639404,0.08268871158361435,0.06115249916911125,-0.9733465313911438,-0.12797801196575165
8.22,0.16377957165241241,0.044872939586639404,0.0880148783326149,0.05993250384926796,-0.9752985239028931,-0.12456199526786804
8.24,0.16271434724330902,0.04913387447595596,0.09334104508161545,0.05554049834609032,-0.9728584289550781,-0.11870599538087845
8.26,0.1659100502729416,0.047003407031297684,0.09014534205198288,0.05404600128531456,-0.9745665192604065,-0.11480199545621872
8.28,0.17017097771167755,0.04593817517161369,0.09014534205198288,0.05062999948859215,-0.9757865071296692,-0.11159949749708176
8.3,0.16910573840141296,0.04913387447595596,0.09121058136224747,0.05306999757885933,-0.98066645860672,-0.11062350869178772
8.32,0.17123620212078094,0.05659050494432449,0.09121058136224747,0.04892200231552124,-0.984814465045929,-0.10574350506067276
8.34,0.16697527468204498,0.0555252730846405,0.09227581322193146,0.04818999767303467,-0.9801784753799438,-0.10305950790643692
8.36,0.15845340490341187,0.054460037499666214,0.08375394344329834,0.04550600051879883,-0.9762744903564453,-0.09305550158023834
8.38,0.14886631071567535,0.054460037499666214,0.07949301600456238,0.052581995725631714,-0.978470504283905,-0.09305550158023834
8.4,0.14140968024730682,0.051264338195323944,0.07629731297492981,0.043554000556468964,-0.974322497844696,-0.08033700287342072
8.42,0.13714875280857086,0.04913387447595596,0.07523208111524582,0.05136200040578842,-0.9804224967956543,-0.0798489972949028
8.44,0.13714875280857086,0.04913387447595596,0.0667102187871933,0.03989399969577789,-0.9870409369468689,-0.07936099916696548
8.46,0.12649641931056976,0.037416309118270874,0.07097115367650986,0.040869999676942825,-0.9911889433860779,-0.07496900111436844
8.48,0.11051792651414871,0.037416309118270874,0.06457975506782532,0.03916200250387192,-0.9916769862174988,-0.07326100021600723
8.5,0.09453943371772766,0.03209014609456062,0.05499265342950821,0.03647800162434578,-0.9520879983901978,-0.052002497017383575
8.52,0.08495233207941055,0.025698747485876083,0.04753602296113968,0.03135399892926216,-0.9738345146179199,-0.05932249873876572
8.54,0.07856093347072601,0.028894444927573204,0.04434032365679741,0.032329998910427094,-0.991921067237854,-0.060328997671604156
8.56,0.06258244067430496,0.020372580736875534,0.03262276202440262,0.034282002598047256,-0.98996901512146,-0.05834650248289108
8.58,0.04873441159725189,0.03209014609456062,0.0347532257437706,0.019123500213027,-1.0358715057373047,-0.06813699752092361
8.6,0.03914731368422508,0.017176883295178413,0.01877473294734955,0.027938000857830048,-0.9907009601593018,-0.05907849594950676
8.62,0.017842652276158333,0.018242115154862404,0.013448567129671574,0.03184200078248978,-0.9931409955024719,-0.05932249873876572
8.64,-0.0001331541279796511,0.013981183059513569,-0.0025299284607172012,0.032329998910427094,-0.9911889433860779,-0.05834650248289108
8.66,-0.018242115154862404,0.010785484686493874,-0.009986559860408306,0.028425998985767365,-0.9916769862174988,-0.05907849594950676
8.68,-0.03209014609456062,0.007589785382151604,-0.0185084231197834,0.029401998966932297,-0.9943609833717346,-0.05663849785923958
8.7,-0.044872939586639404,0.0033288532868027687,-0.02489982172846794,0.032085999846458435,-0.9948489665985107,-0.06106100231409073
8.72,-0.060851436108350754,0.0001331541279796511,-0.03342168778181076,0.03306199982762337,-0.9889929890632629,-0.06081699952483177
8.74,-0.07363422960042953,0.0011983871227130294,-0.04087831825017929,0.032329998910427094,-0.9885050058364868,-0.05663849785923958
8.76,-0.08535179495811462,-0.0030625448562204838,-0.04513924941420555,0.03306199982762337,-0.9853024482727051,-0.06447699666023254
8.78,-0.0991998240351677,-0.009453942999243736,-0.04833494871854782,0.03525800257921219,-0.9823745489120483,-0.0630130022764206
8.8,-0.10133028775453568,-0.009453942999243736,-0.05259587988257408,0.037209998816251755,-0.9897249937057495,-0.06398900598287582
8.82,-0.10452599078416824,-0.012649642303586006,-0.05366111174225807,0.04013799875974655,-0.9931409955024719,-0.06984499841928482
8.84,-0.11837401986122131,-0.012649642303586006,-0.05898727849125862,0.04038200154900551,-0.9892370104789734,-0.07326100021600723
8.86,-0.1311568170785904,-0.015845341607928276,-0.06857437640428543,0.03989399969577789,-0.9885050058364868,-0.07789699733257294
8.88,-0.13861344754695892,-0.016910573467612267,-0.07390054315328598,0.04379799962043762,-0.9885050058364868,-0.07887300103902817
8.9,-0.14713531732559204,-0.020106272771954536,-0.07603100687265396,0.04282199963927269,-0.9813984632492065,-0.08180100470781326
8.92,-0.1524614691734314,-0.023301972076296806,-0.0824224054813385,0.04745800048112869,-0.9853024482727051,-0.08619300276041031
8.94,-0.15778763592243195,-0.022236740216612816,-0.08135717362165451,0.04550600051879883,-0.9796904921531677,-0.08915150165557861
8.96,-0.1620485782623291,-0.025432437658309937,-0.08029194176197052,0.05014200136065483,-0.9799345135688782,-0.0915914997458458
8.98,-0.16630950570106506,-0.021171506494283676,-0.08455286920070648,0.05185000225901604,-0.9755424857139587,-0.0979354977607727
9,-0.16950520873069763,-0.022236740216612816,-0.08561810106039047,0.05111800134181976,-0.98066645860672,-0.10061950236558914
9.02,-0.1716356724500656,-0.026497671380639076,-0.08348763734102249,0.05529649555683136,-0.9777385592460632,-0.102571502327919
9.04,-0.1737661361694336,-0.028628136962652206,-0.08348763734102249,0.058468498289585114,-0.9796904921531677,-0.10720749944448471
9.06,-0.1737661361694336,-0.026497671380639076,-0.08455286920070648,0.0579804964363575,-0.9767624735832214,-0.1130634993314743
9.08,-0.16843996942043304,-0.024367205798625946,-0.0824224054813385,0.0655445009469986,-0.9757865071296692,-0.11846199631690979
9.1,-0.1631138026714325,-0.026497671380639076,-0.08135717362165451,0.06578850001096725,-0.9674904942512512,-0.12700200080871582
9.12,-0.15672241151332855,-0.030758604407310486,-0.07816147059202194,0.07042449712753296,-0.9721264839172363,-0.13188199698925018
9.14,-0.15778763592243195,-0.030758604407310486,-0.07390054315328598,0.07066849619150162,-0.9687105417251587,-0.13481000065803528
9.16,-0.14713531732559204,-0.030758604407310486,-0.06963960826396942,0.07457250356674194,-0.9621224999427795,-0.1428924947977066
9.18,-0.1396786868572235,-0.027562905102968216,-0.0611177459359169,0.07457250356674194,-0.9621224999427795,-0.1428924947977066
9.2,-0.1290263533592224,-0.028628136962652206,-0.05898727849125862,0.07408449798822403,-0.9709064960479736,-0.15118850767612457
9.22,-0.1194392517209053,-0.033954303711652756,-0.0504654161632061,0.07384049892425537,-0.9635864496231079,-0.15118850767612457
9.24,-0.10665645450353622,-0.027562905102968216,-0.03661738336086273,0.0731084942817688,-0.9652945399284363,-0.15314050018787384
9.26,-0.0981345921754837,-0.025432437658309937,-0.02809552103281021,0.07579249888658524,-0.9604145288467407,-0.15606850385665894
9.28,-0.0874822586774826,-0.021171506494283676,-0.02916075475513935,0.07457250356674194,-0.9587064981460571,-0.16168050467967987
9.3,-0.07363422960042953,-0.022236740216612816,-0.02276935614645481,0.07920850068330765,-0.961390495300293,-0.16485249996185303
9.32,-0.061916667968034744,-0.022236740216612816,-0.014247491955757141,0.07823249697685242,-0.959926426410675,-0.16338850557804108
9.34,-0.04913387447595596,-0.013714875094592571,-0.011051792651414871,0.07579249888658524,-0.961390495300293,-0.1614365130662918
9.36,-0.03954677656292915,-0.008388710208237171,-0.005725627299398184,0.07969649881124496,-0.964318573474884,-0.1621685028076172
9.38,-0.026763979345560074,-0.0030625448562204838,-0.0025299284607172012,0.07750049978494644,-0.9589504599571228,-0.1702509969472885
9.4,-0.016111649572849274,0.00226362026296556,0.000665770610794425,0.07676850259304047,-0.9594384431838989,-0.1668044924736023
9.42,0.0007989247678779066,0.00226362026296556,0.010252867825329304,0.08116050064563751,-0.9606585502624512,-0.1672924906015396
9.44,0.014646953903138638,0.0033288532868027687,0.012383334338665009,0.0794524997472763,-0.9616345167160034,-0.16875649988651276
9.46,0.029560215771198273,0.006524552125483751,0.01770949922502041,0.07920850068330765,-0.964318573474884,-0.16924449801445007
9.48,0.0370168462395668,0.007589785382151604,0.02516612969338894,0.07920850068330765,-0.9574559926986694,-0.16631650924682617
9.5,0.0476691760122776,0.011850717477500439,0.03049229457974434,0.07262050360441208,-0.9604145288467407,-0.16631650924682617
9.52,0.05619104206562042,0.011850717477500439,0.03581846132874489,0.07872050255537033,-0.959926426410675,-0.15899650752544403
9.54,0.07003907114267349,0.010785484686493874,0.03901416063308716,0.0777445062994957,-0.9652945399284363,-0.1592404991388321
9.56,0.08282186836004257,0.017176883295178413,0.04434032365679741,0.07554849982261658,-0.9628545045852661,-0.16363251209259033
9.58,0.09134373068809509,0.020372580736875534,0.04966649040579796,0.07554849982261658,-0.9662705063819885,-0.1575324982404709
9.6,0.09986559301614761,0.018242115154862404,0.05179695412516594,0.07823249697685242,-0.9618784785270691,-0.15265250205993652
9.62,0.10732222348451614,0.023568280041217804,0.0560578890144825,0.07237650454044342,-0.964074432849884,-0.1492365002632141
9.64,0.11797455698251724,0.018242115154862404,0.06031882017850876,0.07286449521780014,-0.96236652135849,-0.152164489030838
9.66,0.12649641931056976,0.025698747485876083,0.0667102187871933,0.06969249993562698,-0.9670025110244751,-0.1499684900045395
9.68,0.1328878253698349,0.027829213067889214,0.07203638553619385,0.06432449817657471,-0.968222439289093,-0.14338049292564392
9.7,0.14034445583820343,0.029959678649902344,0.06990591436624527,0.06822849810123444,-0.9726144671440125,-0.1441124975681305
9.72,0.14140968024730682,0.03528584539890289,0.07629731297492981,0.06578850001096725,-0.9748104810714722,-0.13749399781227112
9.74,0.14780108630657196,0.037416309118270874,0.07629731297492981,0.06505650281906128,-0.9716385006904602,-0.13334600627422333
9.76,0.1541924774646759,0.03848154470324516,0.08588441461324692,0.06042049825191498,-0.9740785360336304,-0.1277339905500412
9.78,0.16271434724330902,0.04274247586727142,0.09334104508161545,0.058224499225616455,-0.9699305295944214,-0.12456199526786804
9.8,0.1659100502729416,0.043807707726955414,0.10079767554998398,0.058468498289585114,-0.9721264839172363,-0.12163399904966354
9.82,0.17017097771167755,0.05978620424866676,0.10186290740966797,0.05724850296974182,-0.9767624735832214,-0.11577799916267395
9.84,0.16697527468204498,0.051264338195323944,0.10399337112903595,0.05404600128531456,-0.9835944771766663,-0.11870599538087845
9.86,0.16377957165241241,0.053394805639982224,0.10079767554998398,0.05404600128531456,-0.9855464696884155,-0.10696350038051605
9.88,0.1552577167749405,0.053394805639982224,0.09440627694129944,0.04867799952626228,-0.98996901512146,-0.10623149573802948
9.9,0.1531272530555725,0.0555252730846405,0.08908011019229889,0.05160599946975708,-0.9840825200080872,-0.09988749772310257
9.92,0.14567062258720398,0.053394805639982224,0.08588441461324692,0.04745800048112869,-0.9792025089263916,-0.09549549967050552
9.94,0.13927921652793884,0.053394805639982224,0.08268871158361435,0.04135800153017044,-0.9796904921531677,-0.08890750259160995
9.96,0.14034445583820343,0.04593817517161369,0.07949301600456238,0.04013799875974655,-0.9816425442695618,-0.0844849944114685
9.98,0.12649641931056976,0.041677240282297134,0.07629731297492981,0.036965999752283096,-0.9863089919090271,-0.0874129980802536
10,0.11903978884220123,0.041677240282297134,0.06990591436624527,0.0386740006506443,-0.9875290393829346,-0.07765299826860428
10.02,0.09560466557741165,0.033155377954244614,0.0667102187871933,0.07530450075864792,-0.9472079873085022,-0.0886635035276413
10.04,0.09347419440746307,0.027829213067889214,0.05712312087416649,0.03501399978995323,-0.9860649704933167,-0.07326100021600723
10.06,0.08069140464067459,0.024633513763546944,0.04753602296113968,0.03623399883508682,-0.9887490272521973,-0.07008899748325348
10.08,0.06577813625335693,0.018242115154862404,0.03794892504811287,0.03525800257921219,-0.9885050058364868,-0.0739930048584938
10.1,0.0583215095102787,0.011850717477500439,0.02836182899773121,0.05895650014281273,-1.004120945930481,-0.08915150165557861
10.12,0.03914731368422508,0.009720250964164734,0.01983996480703354,0.03257400169968605,-0.9894810318946838,-0.066429004073143
10.14,0.026364516466856003,0.008655018173158169,0.01664426550269127,0.03135399892926216,-0.9938730001449585,-0.06228099763393402
10.16,0.016777420416474342,0.006524552125483751,0.011318100616335869,0.033305998891592026,-0.98996901512146,-0.06398900598287582
10.18,-0.0011983871227130294,0.006524552125483751,-0.0003994623839389533,0.029158001765608788,-0.9897249937057495,-0.06520900130271912
10.2,-0.018242115154862404,0.004394086077809334,-0.008921326138079166,0.03184200078248978,-0.9938730001449585,-0.06081699952483177
10.22,-0.028894444927573204,0.0011983871227130294,-0.015312724746763706,0.027938000857830048,-0.9867969751358032,-0.0647209957242012
10.24,-0.043807707726955414,-0.0009320789249613881,-0.02170412242412567,0.03013399988412857,-0.9909449815750122,-0.0630130022764206
10.26,-0.057655736804008484,-0.0030625448562204838,-0.02703028731048107,0.03013399988412857,-0.9892370104789734,-0.0630130022764206
10.28,-0.07043853402137756,-0.0030625448562204838,-0.03342168778181076,0.029158001765608788,-0.984814465045929,-0.06325700134038925
10.3,-0.08002562820911407,-0.005193010903894901,-0.04513924941420555,0.032329998910427094,-0.9840825200080872,-0.06838100403547287
10.32,-0.09387365728616714,-0.010519175790250301,-0.04194355010986328,0.030378000810742378,-0.9892370104789734,-0.07448099553585052
10.34,-0.10559122264385223,-0.008388710208237171,-0.04726971685886383,0.03989399969577789,-0.9924090504646301,-0.07301700115203857
10.36,-0.11837401986122131,-0.011584409512579441,-0.05579157918691635,0.03794199973344803,-0.9860649704933167,-0.08204499632120132
10.38,-0.12370018661022186,-0.014780107885599136,-0.06218297779560089,0.03940599784255028,-0.9894810318946838,-0.08594900369644165
10.4,-0.13435252010822296,-0.017975807189941406,-0.06644391268491745,0.03989399969577789,-0.9831064939498901,-0.08521699905395508
10.42,-0.14393961429595947,-0.021171506494283676,-0.06857437640428543,0.03891799971461296,-0.9821305274963379,-0.08619300276041031
10.44,-0.15778763592243195,-0.017975807189941406,-0.06963960826396942,0.043554000556468964,-0.9813984632492065,-0.09451950341463089
10.46,-0.16843996942043304,-0.017975807189941406,-0.07070484012365341,0.04794600233435631,-0.9809104800224304,-0.09549549967050552
10.48,-0.17802706360816956,-0.010519175790250301,-0.06750914454460144,0.04770199954509735,-0.9801784753799438,-0.10061950236558914
10.5,-0.18654893338680267,-0.013714875094592571,-0.06750914454460144,0.044773999601602554,-0.9809104800224304,-0.10598750412464142
10.52,-0.18548369407653809,-0.014780107885599136,-0.06644391268491745,0.04867799952626228,-0.9821305274963379,-0.10720749944448471
10.54,-0.1844184696674347,-0.012649642303586006,-0.06963960826396942,0.06139649823307991,-0.9816425442695618,-0.11452750116586685
10.56,-0.18761417269706726,-0.013714875094592571,-0.06963960826396942,0.05749250203371048,-0.976518452167511,-0.11480199545621872
10.58,-0.1822880059480667,-0.013714875094592571,-0.07390054315328598,0.06164050102233887,-0.9752985239028931,-0.12553799152374268
10.6,-0.17909230291843414,-0.021171506494283676,-0.07496577501296997,0.06749650090932846,-0.9752985239028931,-0.1289539933204651
10.62,-0.1737661361694336,-0.021171506494283676,-0.06750914454460144,0.06286049634218216,-0.9745665192604065,-0.13725000619888306
10.64,-0.16843996942043304,-0.029693370684981346,-0.0611177459359169,0.07286449521780014,-0.9667584896087646,-0.13041800260543823
10.66,-0.16843996942043304,-0.037150003015995026,-0.05259587988257408,0.06603249907493591,-0.9687105417251587,-0.14090999960899353
10.68,-0.16630950570106506,-0.043541401624679565,-0.04407401755452156,0.06822849810123444,-0.9694425463676453,-0.14972449839115143
10.7,-0.15672241151332855,-0.042476166039705276,-0.03448691964149475,0.0701805055141449,-0.9677344560623169,-0.15070050954818726
10.72,-0.14607007801532745,-0.04993279650807381,-0.03022598661482334,0.06993649899959564,-0.966514527797699,-0.152164489030838
10.74,-0.13435252010822296,-0.045671865344047546,-0.02703028731048107,0.06993649899959564,-0.966514527797699,-0.152164489030838
10.76,-0.1194392517209053,-0.042476166039705276,-0.02276935614645481,0.06627649813890457,-0.9667584896087646,-0.1568005084991455
10.78,-0.10772168636322021,-0.040345702320337296,-0.01744319126009941,0.06652049720287323,-0.9604145288467407,-0.16314449906349182
10.8,-0.09493889659643173,-0.03928046673536301,-0.01744319126009941,0.06676450371742249,-0.9584320187568665,-0.17000699043273926
10.82,-0.07896039634943008,-0.037150003015995026,-0.009986559860408306,0.06530049443244934,-0.9567239880561829,-0.16924449801445007
10.84,-0.07043853402137756,-0.033954303711652756,-0.0025299284607172012,0.06530049443244934,-0.959926426410675,-0.1756190061569214
10.86,-0.066177599132061,-0.028628136962652206,0.000665770610794425,0.06798449903726578,-0.960170567035675,-0.17635099589824677
10.88,-0.058720968663692474,-0.022236740216612816,0.0027962366584688425,0.07115650177001953,-0.9591944813728333,-0.1778150051832199
10.9,-0.050199106335639954,-0.010519175790250301,0.005991935729980469,0.06896050274372101,-0.955016016960144,-0.17415499687194824
10.92,-0.034220609813928604,-0.006258244160562754,0.012383334338665009,0.06237250193953514,-0.9589504599571228,-0.17220298945903778
10.94,-0.019307348877191544,-0.0009320789249613881,0.010252867825329304,0.06359250098466873,-0.9589504599571228,-0.17879100143909454
10.96,-0.0001331541279796511,0.005459319334477186,0.013448567129671574,0.06432449817657471,-0.9630984663963318,-0.17635099589824677
10.98,0.015712186694145203,0.009720250964164734,0.01770949922502041,0.06652049720287323,-0.9596824645996094,-0.18171900510787964
11,0.029560215771198273,0.012915950268507004,0.015579032711684704,0.06383650004863739,-0.9591944813728333,-0.1743989884853363
11.02,0.04340824484825134,0.013981183059513569,0.015579032711684704,0.06310449540615082,-0.9545280337333679,-0.1778150051832199
11.04,0.04553871229290962,0.011850717477500439,0.02090519852936268,0.06530049443244934,-0.9552600383758545,-0.17488700151443481
11.06,0.05193011090159416,0.018242115154862404,0.02516612969338894,0.06432449817657471,-0.959926426410675,-0.1726910024881363
11.08,0.06151720881462097,0.019307348877191544,0.02516612969338894,0.06456850469112396,-0.9618784785270691,-0.17708300054073334
11.1,0.06790860742330551,0.023568280041217804,0.03262276202440262,0.06237250193953514,-0.9616345167160034,-0.1714709997177124
11.12,0.08175663650035858,0.022503048181533813,0.03262276202440262,0.06237250193953514,-0.9616345167160034,-0.1714709997177124
11.14,0.08814803510904312,0.022503048181533813,0.03368799388408661,0.06286049634218216,-0.959926426410675,-0.16460849344730377
11.16,0.09773512929677963,0.022503048181533813,0.03688369318842888,0.06017650291323662,-0.9662705063819885,-0.1655845046043396
11.18,0.10625699162483215,0.026763979345560074,0.04220985993742943,0.058468498289585114,-0.9667584896087646,-0.16192449629306793
11.2,0.11477886140346527,0.029959678649902344,0.04327509179711342,0.059688501060009,-0.972370445728302,-0.15826450288295746
11.22,0.11797455698251724,0.03209014609456062,0.04860125854611397,0.05895650014281273,-0.972370445728302,-0.15948450565338135
11.24,0.12649641931056976,0.036351077258586884,0.05712312087416649,0.06139649823307991,-0.9684664607048035,-0.15094450116157532
11.26,0.12543119490146637,0.03528584539890289,0.05286218971014023,0.05529649555683136,-0.972370445728302,-0.152164489030838
11.28,0.12649641931056976,0.03209014609456062,0.05286218971014023,0.06115249916911125,-0.9728584289550781,-0.1470405012369156
11.3,0.12862688302993774,0.034220609813928604,0.05712312087416649,0.052094001322984695,-0.9745665192604065,-0.1357859969139099
11.32,0.12862688302993774,0.03209014609456062,0.06564498692750931,0.050873998552560806,-0.9713944792747498,-0.13456600904464722
11.34,0.1318225860595703,0.027829213067889214,0.06990591436624527,0.04941000044345856,-0.976518452167511,-0.1294419914484024
11.36,0.1339530497789383,0.03528584539890289,0.06884068250656128,0.050873998552560806,-0.9728584289550781,-0.1260260045528412
11.38,0.12756165862083435,0.029959678649902344,0.0667102187871933,0.05185000225901604,-0.9762744903564453,-0.12285400182008743
11.4,0.12543119490146637,0.03209014609456062,0.0667102187871933,0.04574999958276749,-0.9801784753799438,-0.12163399904966354
11.42,0.11690932512283325,0.028894444927573204,0.06351451575756073,0.04574999958276749,-0.9782265424728394,-0.11821800470352173
11.44,0.11477886140346527,0.025698747485876083,0.06031882017850876,0.04696999862790108,-0.9816425442695618,-0.1130634993314743
11.46,0.10519175976514816,0.022503048181533813,0.05818835273385048,0.042089998722076416,-0.9850584864616394,-0.1130634993314743
11.48,0.10412652790546417,0.019307348877191544,0.05073172226548195,0.042089998722076416,-0.9845705032348633,-0.10305950790643692
11.5,0.09773512929677963,0.020372580736875534,0.04434032365679741,0.03940599784255028,-0.9796904921531677,-0.1037914976477623
11.52,0.07962616533041,0.012915950268507004,0.04007939249277115,0.03940599784255028,-0.9796904921531677,-0.1037914976477623
11.54,0.07216953486204147,0.007589785382151604,0.03901416063308716,0.03769800066947937,-0.9887490272521973,-0.10330349951982498
11.56,0.05512581020593643,0.007589785382151604,0.03581846132874489,0.03281800076365471,-0.9855464696884155,-0.1008635014295578
11.58,0.05299534276127815,0.006524552125483751,0.0347532257437706,0.033549997955560684,-0.9863089919090271,-0.09573949873447418
11.6,0.03808208182454109,0.004394086077809334,0.02942706272006035,0.033549997955560684,-0.9863089919090271,-0.09573949873447418
11.62,0.028494983911514282,0.004394086077809334,0.02303566411137581,0.03135399892926216,-0.987773060798645,-0.09720350056886673
11.64,0.018907885998487473,0.007589785382151604,0.013448567129671574,0.03135399892926216,-0.9860649704933167,-0.09451950341463089
11.66,0.00399462366476655,0.006524552125483751,0.007057168986648321,0.03769800066947937,-0.9863089919090271,-0.09183549880981445
11.68,-0.007589785382151604,0.006524552125483751,0.000665770610794425,0.03159800171852112,-0.9872849583625793,-0.09378749877214432
11.7,-0.022503048181533813,0.007589785382151604,-0.011051792651414871,0.03159800171852112,-0.9872849583625793,-0.09378749877214432
11.72,-0.036351077258586884,0.011850717477500439,-0.01957365684211254,0.03794199973344803,-0.9885050058364868,-0.10061950236558914
11.74,-0.05659050494432449,0.006524552125483751,-0.03129122033715248,0.04038200154900551,-0.9863089919090271,-0.09476349502801895
11.76,-0.07256899774074554,0.007589785382151604,-0.03342168778181076,0.04038200154900551,-0.9863089919090271,-0.09476349502801895
11.78,-0.07896039634943008,0.0033288532868027687,-0.03768261894583702,0.03891799971461296,-0.9818865656852722,-0.0991555005311966
11.8,-0.08854749798774719,-0.005193010903894901,-0.04407401755452156,0.04013799875974655,-0.9860649704933167,-0.10183950513601303
11.82,-0.09600412845611572,-0.007323476951569319,-0.04407401755452156,0.04062599688768387,-0.9792025089263916,-0.10330349951982498
11.84,-0.10559122264385223,-0.012649642303586006,-0.04940018057823181,0.040869999676942825,-0.9821305274963379,-0.10354749113321304
11.86,-0.11198262125253677,-0.014780107885599136,-0.05259587988257408,0.04257800057530403,-0.9789584875106812,-0.1067194938659668
11.88,-0.1194392517209053,-0.014780107885599136,-0.05792204663157463,0.04574999958276749,-0.9831064939498901,-0.10623149573802948
11.9,-0.1300915777683258,-0.015845341607928276,-0.06324820965528488,0.04526200145483017,-0.9853024482727051,-0.1172420009970665
11.92,-0.13435252010822296,-0.015845341607928276,-0.06324820965528488,0.04794600233435631,-0.9752985239028931,-0.11379549652338028
11.94,-0.1396786868572235,-0.025432437658309937,-0.06963960826396942,0.04745800048112869,-0.9779825210571289,-0.11821800470352173
11.96,-0.14287437498569489,-0.019041040912270546,-0.07283531129360199,0.04892200231552124,-0.9789584875106812,-0.11699799448251724
11.98,-0.14607007801532745,-0.024367205798625946,-0.07496577501296997,0.05233800411224365,-0.9760304689407349,-0.12456199526786804
12,-0.14820054173469543,-0.022236740216612816,-0.07709623873233795,0.05233800411224365,-0.9752985239028931,-0.12846601009368896
12.02,-0.14393961429595947,-0.022236740216612816,-0.07496577501296997,0.053557999432086945,-0.9789584875106812,-0.13651800155639648
12.04,-0.14287437498569489,-0.025432437658309937,-0.07283531129360199,0.049653999507427216,-0.9733465313911438,-0.13603000342845917
12.06,-0.1396786868572235,-0.027562905102968216,-0.06963960826396942,0.05529649555683136,-0.9728584289550781,-0.13627399504184723
12.08,-0.13754820823669434,-0.030758604407310486,-0.06963960826396942,0.05627249926328659,-0.9677344560623169,-0.14801649749279022
12.1,-0.1396786868572235,-0.031823836266994476,-0.06963960826396942,0.060664497315883636,-0.9667584896087646,-0.1492365002632141
12.12,-0.12583065032958984,-0.028628136962652206,-0.0611177459359169,0.061884500086307526,-0.968222439289093,-0.15484850108623505
12.14,-0.11411308497190475,-0.022236740216612816,-0.0611177459359169,0.06432449817657471,-0.9738345146179199,-0.15728850662708282
12.16,-0.10985215753316879,-0.025432437658309937,-0.05472634732723236,0.06798449903726578,-0.9677344560623169,-0.16021649539470673
12.18,-0.10239552706480026,-0.028628136962652206,-0.0504654161632061,0.0684724971652031,-0.9672464728355408,-0.16168050467967987
12.2,-0.0991998240351677,-0.030758604407310486,-0.04513924941420555,0.0701805055141449,-0.9645625352859497,-0.17073900997638702
12.22,-0.09280842542648315,-0.029693370684981346,-0.04087831825017929,0.07091249525547028,-0.9616345167160034,-0.16900049149990082
12.24,-0.08215609937906265,-0.026497671380639076,-0.03874785080552101,0.07115650177001953,-0.957211971282959,-0.1672924906015396
12.26,-0.07150376588106155,-0.022236740216612816,-0.03555215150117874,0.06896050274372101,-0.9587064981460571,-0.17195899784564972
12.28,-0.05978620424866676,-0.024367205798625946,-0.03129122033715248,0.0701805055141449,-0.9574559926986694,-0.1714709997177124
12.3,-0.048068638890981674,-0.012649642303586006,-0.01957365684211254,0.07091249525547028,-0.9562360048294067,-0.1731790006160736
12.32,-0.037416309118270874,-0.011584409512579441,-0.015312724746763706,0.06920450180768967,-0.9576999545097351,-0.17415499687194824
12.34,-0.025698747485876083,-0.007323476951569319,-0.005725627299398184,0.0672525018453598,-0.9576999545097351,-0.17513100802898407
12.36,-0.016111649572849274,-0.006258244160562754,-0.008921326138079166,0.06920450180768967,-0.960170567035675,-0.1761070042848587
12.38,0.002929390873759985,-0.004127778112888336,-0.00359516148455441,0.06774049997329712,-0.9587064981460571,-0.17586299777030945
12.4,0.011451254598796368,-0.0009320789249613881,-0.0014646954368799925,0.06993649899959564,-0.9574559926986694,-0.1831829994916916
12.42,0.022103585302829742,0.0033288532868027687,0.005991935729980469,0.06920450180768967,-0.9545280337333679,-0.1883070021867752
12.44,0.027429750189185143,0.005459319334477186,0.007057168986648321,0.06944850087165833,-0.9606585502624512,-0.1773270070552826
12.46,0.03914731368422508,0.007589785382151604,0.012383334338665009,0.07140050083398819,-0.9628545045852661,-0.17464299499988556
12.48,0.05299534276127815,0.007589785382151604,0.01770949922502041,0.06774049997329712,-0.960170567035675,-0.1785469949245453
12.5,0.06151720881462097,0.013981183059513569,0.02197043038904667,0.07359649986028671,-0.964074432849884,-0.17415499687194824
12.52,0.06790860742330551,0.016111649572849274,0.02303566411137581,0.07115650177001953,-0.9606585502624512,-0.17073900997638702
12.54,0.07856093347072601,0.020372580736875534,0.02090519852936268,0.07359649986028671,-0.9611465334892273,-0.17244699597358704
12.56,0.08708280324935913,0.025698747485876083,0.02623136341571808,0.06871649622917175,-0.9652945399284363,-0.1714709997177124
12.58,0.08814803510904312,0.029959678649902344,0.02942706272006035,0.06822849810123444,-0.9689545631408691,-0.16582851111888885
12.6,0.09666989743709564,0.027829213067889214,0.03688369318842888,0.06627649813890457,-0.9648065567016602,-0.16656050086021423
12.62,0.1009308323264122,0.031024912372231483,0.04007939249277115,0.06993649899959564,-0.9660264849662781,-0.1597284972667694
12.64,0.10732222348451614,0.034220609813928604,0.04220985993742943,0.0718884989619255,-0.9672464728355408,-0.15826450288295746
12.66,0.11371362209320068,0.036351077258586884,0.03901416063308716,0.06627649813890457,-0.9667584896087646,-0.1487485021352768
12.68,0.11584409326314926,0.037416309118270874,0.04647079110145569,0.06627649813890457,-0.9689545631408691,-0.15289650857448578
12.7,0.11903978884220123,0.03209014609456062,0.04860125854611397,0.06334850192070007,-0.9701744914054871,-0.14826050400733948
12.72,0.1222354918718338,0.033155377954244614,0.05286218971014023,0.06212850287556648,-0.9694425463676453,-0.14264850318431854
12.74,0.12436595559120178,0.03209014609456062,0.05712312087416649,0.06359250098466873,-0.9677344560623169,-0.1458204984664917
12.76,0.12756165862083435,0.040612008422613144,0.0560578890144825,0.0626165047287941,-0.9711505174636841,-0.13505400717258453
12.78,0.12436595559120178,0.037416309118270874,0.0560578890144825,0.05920049920678139,-0.9721264839172363,-0.13481000065803528
12.8,0.11797455698251724,0.034220609813928604,0.0560578890144825,0.059688501060009,-0.9728584289550781,-0.12846601009368896
12.82,0.11584409326314926,0.03209014609456062,0.05179695412516594,0.05749250203371048,-0.9716385006904602,-0.12334199994802475
12.84,0.1115831583738327,0.024633513763546944,0.04860125854611397,0.05871250107884407,-0.9762744903564453,-0.12285400182008743
12.86,0.10519175976514816,0.026763979345560074,0.04860125854611397,0.05651649832725525,-0.976518452167511,-0.11943800002336502
12.88,0.09880036115646362,0.020372580736875534,0.04647079110145569,0.053557999432086945,-0.9801784753799438,-0.11797399818897247
12.9,0.0902784988284111,0.018242115154862404,0.04007939249277115,0.05651649832725525,-0.9850584864616394,-0.11330750584602356
12.92,0.07962616533041,0.017176883295178413,0.03794892504811287,0.0538019984960556,-0.9835944771766663,-0.1101355031132698
12.94,0.07003907114267349,0.012915950268507004,0.03262276202440262,0.049653999507427216,-0.9821305274963379,-0.11675400286912918
12.96,0.05725627392530441,0.010785484686493874,0.02836182899773121,0.053557999432086945,-0.9850584864616394,-0.11379549652338028
12.98,0.04660394415259361,0.007589785382151604,0.02090519852936268,0.04941000044345856,-0.9863089919090271,-0.11037950217723846
13,0.03169068321585655,0.0033288532868027687,0.014513799920678139,0.048434000462293625,-0.9828625321388245,-0.10574350506067276
13.02,0.022103585302829742,0.004394086077809334,0.009187635034322739,0.04696999862790108,-0.9867969751358032,-0.10476750135421753
13.04,0.008255556225776672,0.011850717477500439,0.0038614696823060513,0.04696999862790108,-0.9872849583625793,-0.1037914976477623
13.06,-0.004394086077809334,0.008655018173158169,-0.006790860556066036,0.04501799866557121,-0.9823745489120483,-0.09842350333929062
13.08,-0.017176883295178413,0.007589785382151604,-0.009986559860408306,0.04404200240969658,-0.9872849583625793,-0.10964750498533249
13.1,0.16058388352394104,-0.1138467788696289,0.08588441461324692,0.2795324921607971,0.032085999846458435,1.006438970565796
13.12,-0.0033288532868027687,-0.011584409512579441,0.07097115367650986,0.2795324921607971,0.032085999846458435,1.006438970565796
13.14,-0.17589659988880157,0.21624229848384857,0.09227581322193146,0.1688784956932068,0.02622999995946884,0.9519660472869873
13.16,-0.27176758646965027,0.4154408872127533,0.09760197252035141,0.1688784956932068,0.02622999995946884,0.9519660472869873
13.18,-0.2973331809043884,0.6327484250068665,-0.014247491955757141,0.25144198536872864,0.04818999767303467,0.9548940062522888
13.2,-0.41131308674812317,0.9372718930244446,-0.02063889056444168,0.2445795089006424,0.051880501210689545,0.9746580123901367
13.22,-0.42196542024612427,1.088534951210022,0.013448567129671574,0.20502100884914398,0.05014200136065483,0.9751459956169128
13.24,-0.3772256374359131,1.1833407878875732,0.01983996480703354,0.1600639969110489,0.024765999987721443,0.9646539688110352
13.26,0.0050598569214344025,1.3461881875991821,-0.17616291344165802,0.14127600193023682,0.06505650281906128,1.0091229677200317
13.28,0.43860968947410583,0.971359372138977,-0.2869471311569214,0.1786385029554367,0.002531500067561865,1.0088790655136108
13.3,0.8677654266357422,0.17789392173290253,-0.11544463038444519,0.10510299354791641,-0.023606998845934868,1.1038864850997925
13.32,0.9689626097679138,0.08854749798774719,0.007057168986648321,0.1454240083694458,0.03794199973344803,1.0865625143051147
13.34,0.7431331872940063,-0.040345702320337296,0.14447222650051117,0.1307535022497177,0.041846003383398056,1.0479495525360107
13.36,0.42476168274879456,0.028894444927573204,0.22955772280693054,0.10510299354791641,0.12514150142669678,1.071403980255127
13.38,0.07323476672172546,0.29080861806869507,0.22423155605793,0.08997499942779541,0.1290455013513565,0.9954285025596619
13.4,-0.12156971544027328,0.3845491111278534,0.20838621258735657,0.07408449798822403,0.11733350157737732,0.9595299959182739
13.42,-0.13328728079795837,0.0874822586774826,0.2348838746547699,0.12221349775791168,0.08241099864244461,1.0726239681243896
13.44,0.1446053832769394,0.11824086308479309,0.12316756695508957,0.12221349775791168,0.08241099864244461,1.0726239681243896
13.46,0.30758604407310486,-0.08082455396652222,-0.08561810106039047,0.13172949850559235,-0.001128499978221953,1.006438970565796
13.48,0.25325915217399597,-0.054193731397390366,-0.22409839928150177,0.13172949850559235,-0.001128499978221953,1.006438970565796
13.5,0.06258244067430496,0.15339355170726776,-0.24433782696723938,0.08116050064563751,0.08753500133752823,0.991768479347229
13.52,-0.051264338195323944,0.2343512624502182,-0.19320663809776306,0.07432850450277328,0.10659749805927277,0.9783484935760498
13.54,-0.03528584539890289,0.11291470378637314,-0.10479229688644409,0.05404600128531456,0.12318950146436691,1.0325775146484375
13.56,-0.020372580736875534,0.13528458774089813,-0.02063889056444168,0.06139649823307991,0.12928949296474457,1.0196149349212646
13.58,-0.016111649572849274,0.10332760214805603,0.01983996480703354,0.05749250203371048,0.11294150352478027,1.0074150562286377
13.6,-0.017176883295178413,0.06404713541269302,0.02303566411137581,0.0684724971652031,0.10806149989366531,1.0032365322113037
13.62,0.017842652276158333,0.040612008422613144,0.01983996480703354,0.0684724971652031,0.10806149989366531,1.0032365322113037
13.64,0.06790860742330551,-0.015845341607928276,0.008122402243316174,0.0748165026307106,0.09363500028848648,1.0176630020141602
13.66,0.0689738392829895,-0.030758604407310486,0.008122402243316174,0.06481250375509262,0.10485900193452835,0.9986004829406738
13.68,0.05938674136996269,-0.041410934180021286,0.015579032711684704,0.06481250375509262,0.10485900193452835,0.9986004829406738
13.7,0.07430000603199005,-0.08934641629457474,0.0027962366584688425,0.0806724950671196,0.11318549513816833,1.0022605657577515
13.72,0.08388710021972656,-0.06804175674915314,0.02090519852936268,0.08265500515699387,0.1063535064458847,0.9973805546760559
13.74,0.09986559301614761,-0.060585130006074905,0.02623136341571808,0.07994050532579422,0.11342950165271759,1.0149790048599243
13.76,0.10945269465446472,-0.07869409024715424,0.02410089783370495,0.07579249888658524,0.1180654987692833,0.9973805546760559
13.78,0.10838746279478073,-0.0712374597787857,0.03581846132874489,0.07798849791288376,0.12074949592351913,1.0074150562286377
13.8,0.11690932512283325,-0.05632419511675835,0.03688369318842888,0.07798849791288376,0.12074949592351913,1.0074150562286377
13.82,0.12117026001214981,-0.060585130006074905,0.03794892504811287,0.07628049701452255,0.1378600001335144,1.003724455833435
13.84,0.11690932512283325,-0.0712374597787857,0.04434032365679741,0.07628049701452255,0.1378600001335144,1.003724455833435
13.86,0.09773512929677963,-0.058454662561416626,0.05818835273385048,0.08116050064563751,0.134443998336792,0.9961604475975037
13.88,0.1115831583738327,-0.040345702320337296,0.06777545064687729,0.08140449970960617,0.13932400941848755,0.9968925714492798
13.9,0.13501828908920288,-0.047802332788705826,0.06138405203819275,0.08607099950313568,0.1424959897994995,1.0081470012664795
13.92,0.10732222348451614,-0.010519175790250301,0.06244928762316704,0.0836310014128685,0.14566799998283386,0.9903045296669006
13.94,0.05619104206562042,0.021437814459204674,0.06564498692750931,0.0894870012998581,0.15176799893379211,0.974414050579071
13.96,0.00719032296910882,0.041677240282297134,0.05499265342950821,0.08704700320959091,0.15103599429130554,0.9739260673522949
13.98,0.0007989247678779066,0.04274247586727142,0.04220985993742943,0.08997499942779541,0.15176799893379211,0.9964044690132141
14,0.04553871229290962,-0.001997311832383275,0.03368799388408661,0.0941229984164238,0.1512800008058548,1.0076590776443481
14.02,0.08175663650035858,-0.005193010903894901,0.03368799388408661,0.09558700025081635,0.15396399796009064,1.0164430141448975
14.04,0.0689738392829895,0.004394086077809334,0.0347532257437706,0.09997899830341339,0.14688800275325775,1.0025044679641724
14.06,0.0018641578499227762,0.023568280041217804,0.03262276202440262,0.09265900403261185,0.14566799998283386,0.9832284450531006
14.08,0.010386021807789803,0.03528584539890289,0.015579032711684704,0.09631899744272232,0.14981600642204285,0.9864004850387573
14.1,0.05619104206562042,0.018242115154862404,0.007057168986648321,0.10412700474262238,0.1495719999074936,1.0235189199447632
14.12,0.17336668074131012,-0.09573781490325928,-0.012117025442421436,0.09778299927711487,0.14981600642204285,1.0220550298690796
14.14,0.19254086911678314,-0.27895790338516235,-0.011051792651414871,0.08875499665737152,0.17034250497817993,0.9893285036087036
14.16,0.08921326696872711,-0.16604319214820862,-0.011051792651414871,0.09558700025081635,0.17668651044368744,1.0152229070663452
14.18,-0.007589785382151604,0.04274247586727142,-0.03768261894583702,0.1151375025510788,0.17424650490283966,1.02229905128479
14.2,-0.044872939586639404,0.16617634892463684,-0.05792204663157463,0.09485500305891037,0.16546249389648438,0.9934765100479126
14.22,-0.09706936031579971,0.14487169682979584,-0.039813082665205,0.0760364979505539,0.1437160074710846,0.935587465763092
