timestamp,gyro_x,gyro_y,gyro_z,acc_x,acc_y,acc_z
0,0.2085193693637848,-0.8295502066612244,0.03581846132874489,0.08314299583435059,0.12977750599384308,1.0840920209884644
0.02,0.7548507452011108,-1.383338212966919,-0.2326202541589737,0.08314299583435059,0.12977750599384308,1.0840920209884644
0.04,0.7282199263572693,-1.6059719324111938,-0.2113156020641327,0.1319735050201416,0.1495719999074936,1.0560014247894287
0.06,0.4343487620353699,-1.2864019870758057,-0.10585752874612808,0.22091150283813477,0.06603249907493591,0.8681824803352356
0.08,-0.009720250964164734,-1.2853368520736694,-0.21238084137439728,0.22091150283813477,0.06603249907493591,0.8681824803352356
0.1,-0.6796186566352844,-1.3300765752792358,-0.3199693560600281,0.20233699679374695,0.1273375004529953,0.8596120476722717
0.12,-0.3101159632205963,-0.24913136661052704,-0.16338011622428894,0.23750349879264832,0.13639599084854126,1.1007144451141357
0.14,0.49932798743247986,-0.41743817925453186,0.16364642977714539,0.23750349879264832,0.13639599084854126,1.1007144451141357
0.16,0.9157009124755859,-0.8764204978942871,0.09760197252035141,0.31884700059890747,-0.007747000083327293,1.0665240287780762
0.18,1.0264852046966553,-1.2672278881072998,0.0560578890144825,0.2988085150718689,0.08289900422096252,1.0186389684677124
0.2,0.7037195563316345,-1.7368624210357666,-0.04833494871854782,0.4151049852371216,0.08875499665737152,0.8100190162658691
0.22,0.16058388352394104,-1.3801425695419312,-0.47855594754219055,0.4151049852371216,0.08875499665737152,0.8100190162658691
0.24,-0.32715970277786255,-0.38761165738105774,-0.5488613247871399,0.5345430374145508,0.1857144981622696,0.759724497795105
0.26,-0.41344356536865234,-0.37482887506484985,-0.17616291344165802,0.4121769964694977,0.2404315024614334,0.7746084928512573
0.28,-0.427291601896286,-0.9967917799949646,-0.06644391268491745,-0.16579800844192505,0.5027925372123718,0.806602954864502
0.3,-1.1547125577926636,0.28335198760032654,-0.008921326138079166,0.354745477437973,0.20355699956417084,0.8627839684486389
0.32,-2.1706786155700684,-0.5280892848968506,0.6034545302391052,0.5377150177955627,0.3713679909706116,0.8527799844741821
0.34,-1.7127615213394165,0.04593817517161369,1.5544413328170776,0.26998600363731384,0.07432850450277328,1.0516095161437988
0.36,-0.4155740439891815,-0.033954303711652756,2.5034308433532715,0.4202290177345276,-0.03900950029492378,1.1490874290466309
0.38,0.6515231728553772,0.012915950268507004,2.1710779666900635,0.5504335165023804,-0.02946300059556961,1.1212409734725952
0.4,0.9636363983154297,0.25139498710632324,1.402246117591858,0.5587294697761536,-0.06954000145196915,1.1676315069198608
0.42,0.9497883915901184,-0.10212921351194382,0.5896064639091492,0.5386910438537598,-0.08567450195550919,0.8031870126724243
0.44,0.8421998620033264,-1.061771035194397,1.079480528831482,0.3584359884262085,-0.1887339949607849,0.9321714639663696
0.46,1.023289442062378,-1.3790773153305054,1.9144901037216187,0.4861700236797333,-0.3807314932346344,1.0977864265441895
0.48,2.550434112548828,-2.8147451877593994,2.7706711292266846,0.7006459832191467,-0.3790234923362732,1.1600675582885742
0.5,3.524989128112793,-3.567598581314087,2.385190010070801,0.9024339914321899,-0.1823900043964386,1.007902979850769
0.52,3.412074565887451,-4.956396102905273,1.5310062170028687,0.9649590253829956,-0.03144549950957298,0.5540325045585632
0.54,2.7208714485168457,-4.241757869720459,1.7408571243286133,0.8164240121841431,-0.27373751997947693,0.4866275191307068
0.56,2.2853243350982666,-4.128976345062256,2.891042470932007,0.554825484752655,-0.3504450023174286,0.24552500247955322
0.58,1.977471947669983,-4.677438259124756,3.401155948638916,0.7192205190658569,-0.28230801224708557,0.10678049176931381
0.6,2.237388849258423,-5.839341163635254,3.6227242946624756,0.7033299803733826,-0.36243149638175964,0.07795799523591995
0.62,2.864677906036377,-5.9394731521606445,3.574788808822632,0.6925939917564392,-0.43349650502204895,0.18690399825572968
0.64,3.1862452030181885,-5.159855842590332,3.8240532875061035,0.5013285279273987,-0.5443944931030273,0.16930550336837769
0.66,2.789046287536621,-3.5590767860412598,4.78036642074585,0.5318589806556702,-0.7571625113487244,0.10580450296401978
0.68,2.6558921337127686,-1.9701484441757202,5.5493316650390625,0.7282484769821167,-0.8091955184936523,0.2789835035800934
0.7,2.954157590866089,-1.2022485733032227,5.777158260345459,1.1034594774246216,-0.8661084771156311,0.44557449221611023
0.72,3.646425724029541,-1.154313087463379,5.562114238739014,1.2746864557266235,-0.8394820690155029,0.6021614670753479
0.74,4.471714973449707,-0.6388735175132751,4.994478225708008,1.6027445793151855,-0.7266319990158081,0.6224440336227417
0.76,4.691153049468994,0.39946237206459045,3.7675960063934326,1.9625530242919922,-0.5099599957466125,0.2938674986362457
0.78,4.165060997009277,1.3132991790771484,2.116751194000244,2.2105178833007812,-0.2512895166873932,-0.036874499171972275
0.8,3.327921152114868,1.4995818138122559,0.22849248349666595,2.248368501663208,-0.03510550037026405,-0.41254299879074097
0.82,2.115952253341675,1.102383017539978,-1.4946551322937012,1.987471580505371,0.035746000707149506,-0.7760419845581055
0.84,0.13501828908920288,0.811574399471283,-2.6512317657470703,1.580265998840332,-0.007747000083327293,-1.1287745237350464
0.86,-1.4901278018951416,0.644465982913971,-2.8609495162963867,1.0233360528945923,-0.13718900084495544,-1.3534984588623047
0.88,-2.715944766998291,0.21943800151348114,-3.117670774459839,0.8418304920196533,-0.37975549697875977,-1.1104440689086914
0.9,-3.5158016681671143,-0.30026257038116455,-2.9046242237091064,0.46786999702453613,-0.6821630001068115,-0.5852645039558411
0.92,-3.385843276977539,-0.679352343082428,-1.9419198036193848,-0.4518269896507263,-1.0077810287475586,0.16418150067329407
0.94,-2.8405771255493164,-1.6081024408340454,-1.167628526687622,0.0626165047287941,-0.9002990126609802,0.4900434911251068
0.96,-2.139786720275879,-2.0894546508789062,-1.1079754829406738,0.0626165047287941,-0.9002990126609802,0.4900434911251068
0.98,-2.949230670928955,-0.7304835319519043,-1.0653661489486694,1.0602105855941772,-0.4269085228443146,0.3571549952030182
1,-2.8714687824249268,0.9095758199691772,-1.0898665189743042,0.98768150806427,-0.49775999784469604,0.9260715246200562
1.02,-1.9629580974578857,1.3429925441741943,-1.2113031148910522,0.98768150806427,-0.49775999784469604,0.9260715246200562
1.04,-2.054568290710449,0.5102466344833374,-1.1111712455749512,0.6527609825134277,-0.39271798729896545,0.4067479968070984
1.06,-3.0598819255828857,-3.300358295440674,1.3862676620483398,0.5140165090560913,-0.39101001620292664,-0.19858549535274506
1.08,-4.164395332336426,-9.605206489562988,4.797410011291504,0.11196549981832504,-0.3228425085544586,-0.460671991109848
1.1,-3.5392367839813232,-11.015174865722656,6.586602210998535,0.630312979221344,-0.6269580125808716,-0.862509548664093
1.12,0.5238283276557922,2.131131887435913,2.8782596588134766,0.4510034918785095,-1.0317234992980957,-0.8283189535140991
1.14,3.065873861312866,2.295177698135376,3.001826763153076,0.8437825441360474,-1.1834304332733154,0.61924147605896
1.16,2.429130792617798,0.7125077247619629,1.8931853771209717,0.7345924973487854,-1.1946545839309692,0.03324500098824501
1.18,0.2809551954269409,-1.121290922164917,0.310515433549881,1.0606985092163086,-1.5200284719467163,-0.7516114711761475
1.2,-0.008655018173158169,-0.9680305123329163,-0.4838820993900299,1.0606985092163086,-1.5200284719467163,-0.7516114711761475
1.22,-0.021437814459204674,0.3398093283176422,0.11038476973772049,0.6031984686851501,-1.1011109352111816,-0.27550649642944336
1.24,-0.03209014609456062,0.9969249367713928,0.6130415797233582,0.1500599980354309,-0.8785830140113831,-0.15362849831581116
1.26,0.12117026001214981,0.46444159746170044,0.4692351520061493,0.1373720020055771,-0.7254120111465454,-0.29700902104377747
1.28,0.11051792651414871,-0.2960016131401062,0.16471165418624878,0.5079165101051331,-0.7151640057563782,-0.3820125162601471
1.3,0.1009308323264122,-0.32263246178627014,0.14447222650051117,0.42218101024627686,-0.7390760183334351,-0.2996929883956909
1.32,0.09986559301614761,-0.19693495333194733,-0.03022598661482334,0.43807148933410645,-0.6885374784469604,-0.2777024805545807
1.34,-0.03528584539890289,0.40904948115348816,-0.10159660130739212,0.43807148933410645,-0.6885374784469604,-0.2777024805545807
1.36,-0.16630950570106506,1.1055787801742554,-0.12929265201091766,0.47055402398109436,-0.8106594681739807,-0.2589145004749298
1.38,-0.36763855814933777,1.812760353088379,-0.1900109350681305,0.5736439824104309,-0.7969955205917358,-0.32290351390838623
1.4,-0.9437964558601379,2.3665482997894287,-0.27736005187034607,0.5736439824104309,-0.7969955205917358,-0.32290351390838623
1.42,-1.4773451089859009,3.3292527198791504,-0.26883819699287415,0.7621949911117554,-0.5070319771766663,-0.34782201051712036
1.44,-1.2270152568817139,3.626452684402466,-0.31251272559165955,0.49742448329925537,-0.5519890189170837,-0.3663964867591858
1.46,-0.9342093467712402,3.541234016418457,0.7323477268218994,0.27709251642227173,-0.7151640057563782,-0.3121674954891205
1.48,-0.8021204471588135,3.461341619491577,1.6045072078704834,0.5074285268783569,-0.6389445066452026,-0.38936299085617065
1.5,-0.343138188123703,3.3857100009918213,2.434190511703491,0.45490750670433044,-0.42373648285865784,-0.03172000125050545
1.52,0.09560466557741165,2.1673498153686523,3.0934367179870605,0.5963360071182251,-0.7935490012168884,-0.1743989884853363
1.54,0.15951864421367645,-0.038215234875679016,2.8867814540863037,0.49105000495910645,-1.1020869016647339,0.23671048879623413
1.56,-0.10239552706480026,-0.847659170627594,2.7099528312683105,0.3652680218219757,-0.9354959726333618,0.07426749914884567
1.58,-0.3090507388114929,-0.4856131076812744,2.74617075920105,0.3046950101852417,-0.8253299593925476,-0.055662501603364944
1.6,-0.4890751242637634,-0.3609808385372162,2.8867814540863037,0.11196549981832504,-1.0014370679855347,-0.10915949940681458
1.62,-0.34952959418296814,-1.3950557708740234,2.968804359436035,0.10681100934743881,-1.0656700134277344,-0.1714709997177124
1.64,-0.3932041525840759,-4.631633281707764,3.345763683319092,-0.1684820055961609,-0.8783390522003174,-0.8568974733352661
1.66,0.12543119490146637,-2.422739267349243,2.6238021850585938,0.21722100675106049,-1.041025996208191,0.31073400378227234
1.68,-0.3314206302165985,-1.9158215522766113,2.2701447010040283,-0.03559349849820137,-0.9516000151634216,-0.305061012506485
1.7,-0.43474823236465454,-1.3513813018798828,2.0114262104034424,-0.09128650277853012,-0.9279015064239502,-0.08793149888515472
1.72,-0.3559209704399109,-1.4749482870101929,1.868685007095337,-0.1362130045890808,-1.0278195142745972,-0.236191987991333
1.74,-0.2930722236633301,-1.3013153076171875,1.7525746822357178,-0.15747149288654327,-1.03831148147583,-0.2396080046892166
1.76,-0.2707023322582245,-1.1202256679534912,1.7195523977279663,-0.15356750786304474,-0.9687105417251587,-0.272334486246109
1.78,-0.31863781809806824,-0.7336792349815369,1.8846635818481445,-0.2512895166873932,-1.0285515785217285,-0.26452648639678955
1.8,-0.4187697470188141,-0.6814828515052795,1.9027725458145142,-0.2984119951725006,-1.0441980361938477,-0.26672250032424927
1.82,-0.5252930521965027,-0.8071803450584412,1.6875953674316406,-0.2564135193824768,-0.9704185128211975,-0.32217147946357727
1.84,-0.42303067445755005,-0.7006570100784302,1.452178955078125,-0.36657950282096863,-0.9225335121154785,-0.3207074999809265
1.86,-0.35698622465133667,0.10971900075674057,1.1391335725784302,-0.4130004942417145,-0.9799345135688782,-0.25232651829719543
1.88,-0.5476629137992859,0.17469821870326996,0.6961297988891602,-0.4425550103187561,-0.8597645163536072,-0.216885507106781
1.9,-0.5615109801292419,-0.37482887506484985,0.24340574443340302,-0.4745495021343231,-0.7104974985122681,-0.11480199545621872
1.92,-0.4091826379299164,-0.30984964966773987,-0.0824224054813385,-0.6235420107841492,-0.745450496673584,-0.2611105144023895
1.94,-0.4049217104911804,-0.33328479528427124,-0.3817528784275055,-0.5920354723930359,-0.8275260329246521,-0.2940810024738312
1.96,-0.31650736927986145,-0.46004751324653625,-0.5659050345420837,-0.5199944972991943,-0.8245980143547058,-0.2257000058889389
1.98,-0.1087869256734848,-0.48241740465164185,-0.6916025280952454,-0.47674548625946045,-0.773052990436554,-0.25818249583244324
2,-0.08535179495811462,0.3195699155330658,-0.3497959077358246,-0.2827959954738617,-1.108186960220337,-0.34782201051712036
2.02,-0.3324858546257019,0.6327484250068665,-0.36577439308166504,-0.47308549284935,-0.9745665192604065,-0.3241235017776489
2.04,-0.2877460718154907,0.4985290467739105,-0.38388335704803467,-0.45036301016807556,-0.9056975245475769,-0.3441619873046875
2.06,-0.008655018173158169,0.2247641682624817,-0.429555207490921,-0.3995499908924103,-0.7779330015182495,-0.3148515224456787
2.08,0.2607157826423645,0.19813334941864014,-0.4529903531074524,-0.3995499908924103,-0.7779330015182495,-0.3148515224456787
2.1,0.3107817471027374,0.2748301327228546,-0.3583177626132965,-0.34483301639556885,-0.7065934538841248,-0.27968502044677734
2.12,0.3011946380138397,-0.35245898365974426,-0.22409839928150177,-0.34946900606155396,-0.861472487449646,-0.35611799359321594
2.14,0.3438039720058441,-0.4121120274066925,-0.3497959077358246,-0.3394649922847748,-0.8575684428215027,-0.24765999615192413
2.16,0.38215234875679016,-0.2960016131401062,-0.5019910335540771,-0.365603506565094,-0.8929789662361145,-0.30286499857902527
2.18,0.44500109553337097,-0.400394469499588,-0.5627093315124512,-0.377315491437912,-0.906185507774353,-0.22643199563026428
2.2,0.337412565946579,-0.5078498721122742,-0.7107767462730408,-0.27032148838043213,-0.8367980122566223,-0.2833450138568878
2.22,0.29799893498420715,0.20665520429611206,-0.541404664516449,-0.15137150883674622,-0.9052095413208008,-0.25058799982070923
2.24,0.5153064727783203,0.020372580736875534,-0.08561810106039047,-0.05096549913287163,-0.8387499451637268,-0.3038409948348999
2.26,0.5430025458335876,-0.2981320917606354,-0.30292564630508423,-0.3201584815979004,-0.8778510093688965,-0.22472400963306427
2.28,0.6037208437919617,-0.013714875094592571,-0.3242303133010864,-0.3316570222377777,-0.865620493888855,-0.26086652278900146
2.3,0.4961322844028473,0.18854624032974243,-0.3901416063308716,-0.3421489894390106,-0.9621224999427795,-0.26672250032424927
2.32,0.2585853040218353,-0.12769481539726257,-0.3583177626132965,-0.3184505105018616,-0.9376920461654663,-0.13261400163173676
2.34,0.17336668074131012,-0.08082455396652222,-0.24859875440597534,-0.21905101835727692,-0.8981029987335205,-0.20248949527740479
2.36,0.17336668074131012,-0.030758604407310486,-0.2219679355621338,-0.30283448100090027,-0.9394000172615051,-0.17122700810432434
2.38,0.20532366633415222,0.043807707726955414,-0.20811989903450012,-0.27327999472618103,-0.9374480247497559,-0.1685125082731247
2.4,0.2798899710178375,0.04274247586727142,-0.1665758192539215,-0.27327999472618103,-0.9374480247497559,-0.1685125082731247
2.42,0.2948032319545746,0.13421936333179474,-0.15166255831718445,-0.27202948927879333,-0.9308295249938965,-0.15826450288295746
2.44,0.3235645294189453,0.10439283400774002,-0.15166255831718445,-0.28181999921798706,-0.9328120350837708,-0.14972449839115143
2.46,0.3363473415374756,0.10865376889705658,-0.16231487691402435,-0.269833505153656,-0.940619945526123,-0.1458204984664917
2.48,0.35019534826278687,0.13634982705116272,-0.18361954391002655,-0.23564299941062927,-0.9506240487098694,-0.13846999406814575
2.5,0.3384777903556824,0.10971900075674057,-0.2006632685661316,-0.22929899394512177,-0.9574559926986694,-0.1294419914484024
2.52,0.333151638507843,0.08002562820911407,-0.19640234112739563,-0.2214910089969635,-0.9689545631408691,-0.11086750030517578
2.54,0.2937380075454712,0.022503048181533813,-0.16444534063339233,-0.20364850759506226,-0.9674904942512512,-0.09598349779844284
2.56,0.23515018820762634,-0.0723026916384697,-0.11544463038444519,-0.18751400709152222,-0.978470504283905,-0.09525150060653687
2.58,0.1968017965555191,-0.19586972892284393,-0.07283531129360199,-0.16823799908161163,-0.9748104810714722,-0.1037914976477623
2.6,0.1850842386484146,-0.2501966059207916,-0.05153064802289009,-0.1819019913673401,-0.9516000151634216,-0.108427494764328
2.62,0.20106273889541626,-0.29067546129226685,-0.02703028731048107,-0.1819019913673401,-0.9516000151634216,-0.108427494764328
2.64,0.22236739099025726,-0.255522757768631,-0.01957365684211254,-0.23466700315475464,-0.9587064981460571,-0.1008635014295578
2.66,0.25752007961273193,-0.2118482142686844,-0.02489982172846794,-0.23466700315475464,-0.9587064981460571,-0.1008635014295578
2.68,0.28841185569763184,-0.13408620655536652,-0.03768261894583702,-0.2639774978160858,-0.9457440376281738,-0.08228899538516998
2.7,0.3022598624229431,-0.07656362652778625,-0.04726971685886383,-0.2639774978160858,-0.9457440376281738,-0.08228899538516998
2.72,0.32889068126678467,0.004394086077809334,-0.07390054315328598,-0.2664175033569336,-0.9564799666404724,-0.06594099849462509
2.74,0.40345701575279236,0.066177599132061,-0.08987903594970703,-0.25031349062919617,-0.9286335110664368,-0.05078250169754028
2.76,0.5195674300193787,0.16404588520526886,-0.10053136944770813,-0.25031349062919617,-0.9286335110664368,-0.05078250169754028
2.78,0.6195661425590515,0.2673735022544861,-0.1260969638824463,-0.24860548973083496,-0.944767951965332,-0.04395049810409546
2.8,0.6738930344581604,0.36750540137290955,-0.1559234857559204,-0.2332030087709427,-0.9835944771766663,-0.0407785028219223
2.82,0.7228937745094299,0.48574626445770264,-0.17403244972229004,-0.22661501169204712,-0.9909449815750122,-0.02903600037097931
2.84,0.8145037889480591,0.4356802999973297,-0.02916075475513935,-0.21365250647068024,-0.9992409944534302,-0.019763998687267303
2.86,0.783612072467804,0.5656387209892273,-0.007856093347072601,-0.19803649187088013,-0.9667584896087646,-0.015371999703347683
2.88,0.5994598865509033,0.5848129391670227,-0.11118369549512863,-0.23637501895427704,-0.9701744914054871,0.017598498612642288
2.9,0.5440677404403687,0.4047885537147522,-0.08668334037065506,-0.2004764974117279,-0.9796904921531677,0.07426749914884567
2.92,0.5291544795036316,0.30359140038490295,-0.03448691964149475,-0.15307949483394623,-0.9735905528068542,0.07917799800634384
2.94,0.5355458855628967,0.25139498710632324,0.02197043038904667,-0.15747149288654327,-0.9709064960479736,0.08601000159978867
2.96,0.5813509225845337,0.17469821870326996,0.11038476973772049,-0.15820351243019104,-0.9911889433860779,0.10434050112962723
2.98,0.5291544795036316,0.24926452338695526,0.1412765234708786,-0.16088749468326569,-0.9501360654830933,0.10556049644947052
3,0.50252366065979,0.10758853703737259,0.20306004583835602,-0.20852848887443542,-0.9413520693778992,0.133651003241539
3.02,0.44713157415390015,0.08109086751937866,0.22423155605793,-0.2068205028772354,-0.9516000151634216,0.15097500383853912
3.04,0.39386990666389465,0.05659050494432449,0.22742724418640137,-0.2156044989824295,-0.9645625352859497,0.15317100286483765
3.06,0.3544562757015228,0.040612008422613144,0.21797330677509308,-0.2197829931974411,-0.966514527797699,0.15536700189113617
3.08,0.3150426745414734,0.037416309118270874,0.20306004583835602,-0.22929899394512177,-0.9626104831695557,0.1563429981470108
3.1,0.2937380075454712,0.043807707726955414,0.19027724862098694,-0.2332030087709427,-0.96236652135849,0.16027750074863434
3.12,0.25752007961273193,0.054460037499666214,0.18601632118225098,-0.24491499364376068,-0.9594384431838989,0.16271750628948212
3.14,0.20106273889541626,0.057655736804008484,0.1742987483739853,-0.2488495111465454,-0.96236652135849,0.1715015023946762
3.16,0.14780108630657196,0.051264338195323944,0.15405932068824768,-0.2534855008125305,-0.9557480216026306,0.18934400379657745
3.18,0.1115831583738327,0.04274247586727142,0.13595037162303925,-0.2534855008125305,-0.9557480216026306,0.18934400379657745
3.2,0.08069140464067459,0.036351077258586884,0.12423279881477356,-0.25909748673439026,-0.9559919834136963,0.19349201023578644
3.22,0.04873441159725189,0.017176883295178413,0.10718907415866852,-0.2581214904785156,-0.948915958404541,0.20227600634098053
3.24,0.013581721112132072,0.0001331541279796511,0.10292813926935196,-0.25665751099586487,-0.944767951965332,0.20813198387622833
3.26,-0.015046416781842709,-0.0030625448562204838,0.09760197252035141,-0.2671494781970978,-0.9428160190582275,0.20081199705600739
3.28,-0.04913387447595596,-0.0009320789249613881,0.08908011019229889,-0.2735240161418915,-0.9459880590438843,0.20056800544261932
3.3,-0.09387365728616714,-0.001997311832383275,0.0773625448346138,-0.2715415060520172,-0.9559919834136963,0.19398000836372375
3.32,-0.13328728079795837,-0.001997311832383275,0.05286218971014023,-0.27032148838043213,-0.9523320198059082,0.18690399825572968
3.34,-0.16630950570106506,-0.009453942999243736,0.02623136341571808,-0.27596399188041687,-0.9513559937477112,0.18345749378204346
3.36,-0.19933173060417175,-0.015845341607928276,0.005991935729980469,-0.2820640206336975,-0.9496479630470276,0.18223750591278076
3.38,-0.22170162200927734,-0.031823836266994476,-0.007856093347072601,-0.2745000123977661,-0.9525759816169739,0.18174949288368225
3.4,-0.25365862250328064,-0.03608476743102074,-0.02703028731048107,-0.27718397974967957,-0.9433040022850037,0.1722334921360016
3.42,-0.2792242169380188,-0.054193731397390366,-0.04513924941420555,-0.27425602078437805,-0.948915958404541,0.16784149408340454
3.44,-0.3037245571613312,-0.06697652488946915,-0.05685681104660034,-0.27742800116539,-0.9516000151634216,0.15856949985027313
3.46,-0.3356815576553345,-0.07975932210683823,-0.07496577501296997,-0.27889201045036316,-0.948915958404541,0.15195100009441376
3.48,-0.36018192768096924,-0.0829550251364708,-0.0930747389793396,-0.26910150051116943,-0.9567239880561829,0.14463099837303162
3.5,-0.3761604130268097,-0.08615072071552277,-0.10798799991607666,-0.26910150051116943,-0.9567239880561829,0.14463099837303162
3.52,-0.3868127465248108,-0.08934641629457474,-0.12396649271249771,-0.27129748463630676,-0.9535519480705261,0.13706699013710022
3.54,-0.38148656487464905,-0.07869409024715424,-0.13355359435081482,-0.2671494781970978,-0.9525759816169739,0.12971650063991547
3.56,-0.40066078305244446,-0.06910699605941772,-0.15272778272628784,-0.2600735127925873,-0.9513559937477112,0.12288449704647064
3.58,-0.4155740439891815,-0.0712374597787857,-0.16018441319465637,-0.25397348403930664,-0.9633424878120422,0.10016199946403503
3.6,-0.4155740439891815,-0.0723026916384697,-0.18361954391002655,-0.23076298832893372,-0.9662705063819885,0.08893799781799316
3.62,-0.41450878977775574,-0.08188978582620621,-0.2006632685661316,-0.23076298832893372,-0.9662705063819885,0.08893799781799316
3.64,-0.4262263774871826,-0.09041165560483932,-0.2113156020641327,-0.23173899948596954,-0.965538501739502,0.07795799523591995
3.66,-0.4166392683982849,-0.0936073511838913,-0.20385897159576416,-0.2244189828634262,-0.9704185128211975,0.06523949652910233
3.68,-0.43261775374412537,-0.11065108329057693,-0.1985328048467636,-0.22051499783992767,-0.9684664607048035,0.05450350418686867
3.7,-0.4379439353942871,-0.10639014840126038,-0.19107617437839508,-0.2197829931974411,-0.9660264849662781,0.047885000705718994
3.72,-0.4155740439891815,-0.1031944528222084,-0.17190198600292206,-0.2126764953136444,-0.9604145288467407,0.03226900100708008
3.74,-0.38255181908607483,-0.07869409024715424,-0.14846685528755188,-0.2104804962873459,-0.9706624746322632,0.013206499628722668
3.76,-0.37083426117897034,-0.058454662561416626,-0.1367492824792862,-0.2104804962873459,-0.9706624746322632,0.013206499628722668
3.78,-0.35698622465133667,-0.050998032093048096,-0.1260969638824463,-0.21584850549697876,-0.9660264849662781,0.00979050062596798
3.8,-0.3420729637145996,-0.045671865344047546,-0.12396649271249771,-0.19681650400161743,-0.9628545045852661,-0.012931999750435352
3.82,-0.30798548460006714,-0.037150003015995026,-0.11650986224412918,-0.18336600065231323,-0.9650505185127258,-0.017079999670386314
3.84,-0.3026593327522278,-0.03928046673536301,-0.11331415921449661,-0.1836100071668625,-0.9635864496231079,-0.028060002252459526
3.86,-0.26324570178985596,-0.031823836266994476,-0.10266183316707611,-0.1853180080652237,-0.960170567035675,-0.03492249920964241
3.88,-0.23235395550727844,-0.030758604407310486,-0.0824224054813385,-0.1811700016260147,-0.9645625352859497,-0.048098500818014145
3.9,-0.20785360038280487,-0.020106272771954536,-0.07496577501296997,-0.1811700016260147,-0.9670025110244751,-0.04956250265240669
3.92,-0.19080986082553864,-0.009453942999243736,-0.07070484012365341,-0.1782420128583908,-0.9687105417251587,-0.059566497802734375
3.94,-0.16524426639080048,-0.004127778112888336,-0.06644391268491745,-0.17702199518680573,-0.9650505185127258,-0.06423300504684448
3.96,-0.13435252010822296,0.006524552125483751,-0.06537867337465286,-0.17458200454711914,-0.9618784785270691,-0.06862500309944153
3.98,-0.10985215753316879,0.009720250964164734,-0.05792204663157463,-0.1777539998292923,-0.9576999545097351,-0.07008899748325348
4,-0.06830807030200958,0.017176883295178413,-0.0504654161632061,-0.173117995262146,-0.9559919834136963,-0.06740500032901764
4.02,-0.040612008422613144,0.018242115154862404,-0.03448691964149475,-0.1667739897966385,-0.9581879377365112,-0.07155299931764603
4.04,-0.005459319334477186,0.023568280041217804,-0.02596505545079708,-0.17214199900627136,-0.9540400505065918,-0.07204099744558334
4.06,0.023168819025158882,0.022503048181533813,-0.01744319126009941,-0.16921399533748627,-0.9616345167160034,-0.06594099849462509
4.08,0.05299534276127815,0.020372580736875534,-0.006790860556066036,-0.16332750022411346,-0.964074432849884,-0.06423300504684448
4.1,0.07110430300235748,0.013981183059513569,0.0017310036346316338,-0.17116598784923553,-0.9591944813728333,-0.06374499946832657
4.12,0.0902784988284111,0.009720250964164734,0.007057168986648321,-0.16799400746822357,-0.9618784785270691,-0.06813699752092361
4.14,0.10625699162483215,0.004394086077809334,0.01664426550269127,-0.16506600379943848,-0.9677344560623169,-0.06569699943065643
4.16,0.12330072373151779,0.004394086077809334,0.02197043038904667,-0.16945800185203552,-0.9660264849662781,-0.06081699952483177
4.18,0.15099677443504333,0.007589785382151604,0.04327509179711342,-0.16945800185203552,-0.9660264849662781,-0.06081699952483177
4.2,0.1744319051504135,0.007589785382151604,0.05712312087416649,-0.167262002825737,-0.9552600383758545,-0.04224249720573425
4.22,0.21384553611278534,0.013981183059513569,0.07842778414487839,-0.1706780046224594,-0.9662705063819885,-0.05224649980664253
4.24,0.2276935577392578,0.011850717477500439,0.0773625448346138,-0.17458200454711914,-0.9718824625015259,-0.04224249720573425
4.26,0.2500634491443634,0.022503048181533813,0.07416684925556183,-0.17458200454711914,-0.9713944792747498,-0.03589850291609764
4.28,0.26497671008110046,0.020372580736875534,0.08162347972393036,-0.17555800080299377,-0.9696865081787109,-0.03001200035214424
4.3,0.2830856740474701,0.027829213067889214,0.09440627694129944,-0.17970599234104156,-0.9662705063819885,-0.02537599951028824
4.32,0.3043903410434723,0.034220609813928604,0.11038476973772049,-0.185806006193161,-0.9677344560623169,-0.014883999712765217
4.34,0.3256950080394745,0.044872939586639404,0.12210233509540558,-0.18775799870491028,-0.9701744914054871,-0.008295999839901924
4.36,0.3267602324485779,0.04593817517161369,0.12316756695508957,-0.18604999780654907,-0.9745665192604065,-0.0036295000463724136
4.38,0.33208638429641724,0.043807707726955414,0.12210233509540558,-0.1899539977312088,-0.9726144671440125,0.00979050062596798
4.4,0.34167349338531494,0.037416309118270874,0.1306242048740387,-0.19364449381828308,-0.9733465313911438,0.022265000268816948
4.42,0.3469996452331543,0.043807707726955414,0.13381989300251007,-0.20120850205421448,-0.9772504568099976,0.021777000278234482
4.44,0.3469996452331543,0.043807707726955414,0.13488513231277466,-0.20291650295257568,-0.9755424857139587,0.03422100096940994
4.46,0.35978245735168457,0.04274247586727142,0.14766792953014374,-0.2063324898481369,-0.9694425463676453,0.03983300179243088
4.48,0.36084768176078796,0.04593817517161369,0.15832026302814484,-0.21316450834274292,-0.9735905528068542,0.04593300074338913
4.5,0.3480648994445801,0.043807707726955414,0.16684211790561676,-0.21536050736904144,-0.968222439289093,0.05669950321316719
4.52,0.3278254568576813,0.051264338195323944,0.16684211790561676,-0.21780049800872803,-0.9694425463676453,0.06719149649143219
4.54,0.30758604407310486,0.058720968663692474,0.16684211790561676,-0.22637099027633667,-0.9626104831695557,0.07597550004720688
4.56,0.3224993050098419,0.026763979345560074,0.17003782093524933,-0.23125100135803223,-0.9674904942512512,0.08210600167512894
4.58,0.29906415939331055,0.06511236727237701,0.16045072674751282,-0.2424750030040741,-0.9589504599571228,0.08552199602127075
4.6,0.26391148567199707,0.058720968663692474,0.14766792953014374,-0.24174298346042633,-0.9670025110244751,0.09943000227212906
4.62,0.24154159426689148,0.06404713541269302,0.13381989300251007,-0.24640949070453644,-0.9650505185127258,0.10653650015592575
4.64,0.22343263030052185,0.066177599132061,0.12849372625350952,-0.25031349062919617,-0.9648065567016602,0.11776050180196762
4.66,0.1957365721464157,0.057655736804008484,0.1199718713760376,-0.2500694990158081,-0.96236652135849,0.1248365044593811
4.68,0.17123620212078094,0.044872939586639404,0.11251524090766907,-0.2517774999141693,-0.9552600383758545,0.12996049225330353
4.7,0.14567062258720398,0.033155377954244614,0.10186290740966797,-0.25153350830078125,-0.9626104831695557,0.13218699395656586
4.72,0.10625699162483215,0.021437814459204674,0.09121058136224747,-0.2547054886817932,-0.9606585502624512,0.133651003241539
4.74,0.0689738392829895,0.013981183059513569,0.07629731297492981,-0.25690150260925293,-0.9574559926986694,0.13560301065444946
4.76,0.030625449493527412,0.006524552125483751,0.06138405203819275,-0.26080551743507385,-0.9567239880561829,0.1348709911108017
4.78,0.002929390873759985,-0.0009320789249613881,0.04860125854611397,-0.2647095024585724,-0.9579439759254456,0.14194700121879578
4.8,-0.041677240282297134,-0.010519175790250301,0.03049229457974434,-0.2639774978160858,-0.9569680094718933,0.14267900586128235
4.82,-0.061916667968034744,-0.005193010903894901,0.01770949922502041,-0.2664175033569336,-0.955016016960144,0.14097100496292114
4.84,-0.08641702681779861,-0.009453942999243736,0.0038614696823060513,-0.2644655108451843,-0.957211971282959,0.139506995677948
4.86,-0.11304785311222076,-0.012649642303586006,-0.008921326138079166,-0.26129350066185,-0.9557480216026306,0.13121099770069122
4.88,-0.1407439112663269,-0.015845341607928276,-0.02489982172846794,-0.26129350066185,-0.9557480216026306,0.13121099770069122
4.9,-0.1631138026714325,-0.019041040912270546,-0.03874785080552101,-0.26324549317359924,-0.9574559926986694,0.13020449876785278
4.92,-0.18548369407653809,-0.019041040912270546,-0.05153064802289009,-0.2644655108451843,-0.959926426410675,0.1272764950990677
4.94,-0.19613602757453918,-0.027562905102968216,-0.05898727849125862,-0.257145494222641,-0.9587064981460571,0.1184924989938736
4.96,-0.2153102308511734,-0.024367205798625946,-0.06750914454460144,-0.25909748673439026,-0.9587064981460571,0.11019650101661682
4.98,-0.23235395550727844,-0.028628136962652206,-0.0824224054813385,-0.25909748673439026,-0.9587064981460571,0.11019650101661682
5,-0.235549658536911,-0.03608476743102074,-0.08881380409002304,-0.24860548973083496,-0.9616345167160034,0.0962579995393753
5.02,-0.23341917991638184,-0.04993279650807381,-0.09840089827775955,-0.24860548973083496,-0.9616345167160034,0.0962579995393753
5.04,-0.18761417269706726,-0.0723026916384697,-0.10692276805639267,-0.25055748224258423,-0.9616345167160034,0.0886939987540245
5.06,-0.16843996942043304,-0.042476166039705276,-0.11544463038444519,-0.2412550002336502,-0.9633424878120422,0.08967000246047974
5.08,-0.20039696991443634,-0.058454662561416626,-0.1250317245721817,-0.247141495347023,-0.9677344560623169,0.08137399703264236
5.1,-0.31544211506843567,-0.058454662561416626,-0.14314068853855133,-0.2483614981174469,-0.964074432849884,0.07231549918651581
5.12,-0.33994248509407043,-0.052063263952732086,-0.15379302203655243,-0.24442699551582336,-0.9733465313911438,0.07844600081443787
5.14,-0.32396399974823,-0.044606633484363556,-0.15166255831718445,-0.2378389984369278,-0.9596824645996094,0.06987550109624863
5.16,-0.32396399974823,-0.037150003015995026,-0.14846685528755188,-0.2361309975385666,-0.964318573474884,0.05962750315666199
5.18,-0.3346163332462311,-0.038215234875679016,-0.1474016159772873,-0.2302750051021576,-0.9650505185127258,0.048861000686883926
5.2,-0.33781203627586365,-0.040345702320337296,-0.15059731900691986,-0.22197899222373962,-0.9674904942512512,0.04251699894666672
5.22,-0.33994248509407043,-0.041410934180021286,-0.1559234857559204,-0.21584850549697876,-0.9694425463676453,0.03300099819898605
5.24,-0.33781203627586365,-0.045671865344047546,-0.15166255831718445,-0.21023650467395782,-0.9716385006904602,0.02202100120484829
5.26,-0.3442034125328064,-0.041410934180021286,-0.15166255831718445,-0.21023650467395782,-0.9716385006904602,0.02202100120484829
5.28,-0.3537905216217041,-0.047802332788705826,-0.1452711522579193,-0.2051125019788742,-0.9706624746322632,0.01589049957692623
5.3,-0.3527252972126007,-0.045671865344047546,-0.13994498550891876,-0.1975484937429428,-0.9718824625015259,0.0005184999899938703
5.32,-0.3420729637145996,-0.04993279650807381,-0.1260969638824463,-0.19315649569034576,-0.9731025695800781,-0.0016775000840425491
5.34,-0.3346163332462311,-0.043541401624679565,-0.11970555782318115,-0.19803649187088013,-0.9687105417251587,-0.018300000578165054
5.36,-0.32715970277786255,-0.040345702320337296,-0.11011846363544464,-0.19218049943447113,-0.9752985239028931,-0.029523998498916626
5.38,-0.31650736927986145,-0.037150003015995026,-0.10266183316707611,-0.18287800252437592,-0.9679784774780273,-0.04029050096869469
5.4,-0.28241991996765137,-0.035019535571336746,-0.08668334037065506,-0.18287800252437592,-0.9679784774780273,-0.04029050096869469
5.42,-0.25898477435112,-0.022236740216612816,-0.07070484012365341,-0.18434199690818787,-0.96236652135849,-0.04614650085568428
5.44,-0.20252743363380432,-0.023301972076296806,-0.05898727849125862,-0.1836100071668625,-0.9576999545097351,-0.06228099763393402
5.46,-0.1737661361694336,0.017176883295178413,-0.05579157918691635,-0.17677800357341766,-0.9662705063819885,-0.06667300313711166
5.48,-0.14713531732559204,-0.021171506494283676,-0.05685681104660034,-0.16750600934028625,-0.9662705063819885,-0.07155299931764603
5.5,-0.14287437498569489,0.012915950268507004,-0.04513924941420555,-0.17092199623584747,-0.9638304710388184,-0.07326100021600723
5.52,-0.15033100545406342,0.013981183059513569,-0.03768261894583702,-0.17043399810791016,-0.9584320187568665,-0.07082100212574005
5.54,-0.13541774451732635,0.019307348877191544,-0.03342168778181076,-0.17238600552082062,-0.9633424878120422,-0.0874129980802536
5.56,-0.12583065032958984,0.019307348877191544,-0.03235645219683647,-0.16872599720954895,-0.9691985249519348,-0.08497299998998642
5.58,-0.10772168636322021,0.012915950268507004,-0.02809552103281021,-0.16775000095367432,-0.968222439289093,-0.08716899901628494
5.6,-0.0768299326300621,0.013981183059513569,-0.0185084231197834,-0.16579800844192505,-0.9621224999427795,-0.09256749600172043
5.62,-0.03528584539890289,0.017176883295178413,-0.0025299284607172012,-0.16332750022411346,-0.9591944813728333,-0.09134750068187714
5.64,-0.009720250964164734,0.021437814459204674,0.010252867825329304,-0.16357149183750153,-0.955016016960144,-0.09134750068187714
5.66,0.00719032296910882,0.024633513763546944,0.009187635034322739,-0.16186349093914032,-0.964318573474884,-0.09598349779844284
5.68,0.021038351580500603,0.008655018173158169,-0.0003994623839389533,-0.16235150396823883,-0.960170567035675,-0.09232349693775177
5.7,0.03914731368422508,0.0033288532868027687,0.0017310036346316338,-0.1643339991569519,-0.9591944813728333,-0.08988349884748459
5.72,0.06471290439367294,-0.0009320789249613881,0.014513799920678139,-0.1714099943637848,-0.9616345167160034,-0.09305550158023834
5.74,0.08175663650035858,0.00226362026296556,0.01877473294734955,-0.16799400746822357,-0.9596824645996094,-0.08692499995231628
5.76,0.09560466557741165,0.004394086077809334,0.02516612969338894,-0.17531399428844452,-0.9604145288467407,-0.0874129980802536
5.78,0.11477886140346527,-0.001997311832383275,0.03155753016471863,-0.17702199518680573,-0.9621224999427795,-0.08350899815559387
5.8,0.1339530497789383,0.0001331541279796511,0.02623136341571808,-0.17092199623584747,-0.96236652135849,-0.08594900369644165
5.82,0.16271434724330902,0.0001331541279796511,0.03581846132874489,-0.17580199241638184,-0.9635864496231079,-0.08082500100135803
5.84,0.18401899933815002,0.010785484686493874,0.04434032365679741,-0.17433799803256989,-0.9626104831695557,-0.07814100384712219
5.86,0.20958459377288818,0.016111649572849274,0.05392742156982422,-0.1760459989309311,-0.9630984663963318,-0.07423700392246246
5.88,0.23408496379852295,0.023568280041217804,0.05392742156982422,-0.17799799144268036,-0.964318573474884,-0.06398900598287582
5.9,0.2585853040218353,0.024633513763546944,0.05499265342950821,-0.17580199241638184,-0.9630984663963318,-0.061549004167318344
5.92,0.2734985649585724,0.028894444927573204,0.0560578890144825,-0.17287400364875793,-0.9609025120735168,-0.05151450261473656
5.94,0.28521615266799927,0.025698747485876083,0.06031882017850876,-0.18214599788188934,-0.9618784785270691,-0.05273450165987015
5.96,0.29906415939331055,0.031024912372231483,0.06244928762316704,-0.17921799421310425,-0.9672464728355408,-0.0407785028219223
5.98,0.3150426745414734,0.03848154470324516,0.06564498692750931,-0.1836100071668625,-0.9733465313911438,-0.031964000314474106
6,0.32036882638931274,0.050199106335639954,0.06777545064687729,-0.1823900043964386,-0.9731025695800781,-0.02635199949145317
6.02,0.3224993050098419,0.051264338195323944,0.06990591436624527,-0.1887339949607849,-0.9801784753799438,-0.026840001344680786
6.04,0.3256950080394745,0.057655736804008484,0.08055824786424637,-0.1912045031785965,-0.9774945378303528,-0.019032001495361328
6.06,0.32995593547821045,0.06298190355300903,0.09227581322193146,-0.19437649846076965,-0.966514527797699,-0.014883999712765217
6.08,0.33954301476478577,0.06830807030200958,0.09653674066066742,-0.19632850587368011,-0.9757865071296692,-0.0031415000557899475
6.1,0.33954301476478577,0.08535179495811462,0.09440627694129944,-0.19632850587368011,-0.972370445728302,0.008570500649511814
6.12,0.3363473415374756,0.08428656309843063,0.09227581322193146,-0.19632850587368011,-0.9740785360336304,0.0134504996240139
6.14,0.3235645294189453,0.08322133123874664,0.08375394344329834,-0.20023249089717865,-0.9691985249519348,0.029340999200940132
6.16,0.3150426745414734,0.07256899774074554,0.08162347972393036,-0.20852848887443542,-0.9718824625015259,0.045200999826192856
6.18,0.3033251166343689,0.07576470077037811,0.09227581322193146,-0.21487249433994293,-0.964074432849884,0.060115497559309006
6.2,0.3022598624229431,0.0778951644897461,0.10186290740966797,-0.21584850549697876,-0.9691985249519348,0.06523949652910233
6.22,0.2926727831363678,0.10439283400774002,0.10399337112903595,-0.2156044989824295,-0.9787145256996155,0.06987550109624863
6.24,0.2703028917312622,0.03528584539890289,0.13701559603214264,-0.20608849823474884,-0.9718824625015259,0.08796200156211853
6.26,0.41410934925079346,0.12463226169347763,0.20945143699645996,-0.21316450834274292,-0.9518439769744873,0.09308599680662155
6.28,0.19041040539741516,0.023568280041217804,0.05712312087416649,-0.2121885120868683,-0.9762744903564453,0.11605250835418701
6.3,0.1126483902335167,-0.008388710208237171,0.05073172226548195,-0.2121885120868683,-0.9762744903564453,0.11605250835418701
6.32,0.09880036115646362,0.0011983871227130294,0.06244928762316704,-0.21584850549697876,-0.9750545024871826,0.10434050112962723
6.34,0.05512581020593643,-0.0030625448562204838,0.05925358831882477,-0.23173899948596954,-0.9777385592460632,0.10556049644947052
6.36,0.012516488321125507,-0.019041040912270546,0.05499265342950821,-0.23173899948596954,-0.9777385592460632,0.10556049644947052
6.38,-0.015046416781842709,-0.017975807189941406,0.03901416063308716,-0.2273470014333725,-0.9726144671440125,0.10458449274301529
6.4,-0.033155377954244614,-0.010519175790250301,0.02410089783370495,-0.227835014462471,-0.968222439289093,0.10360850393772125
6.42,-0.05232957378029823,-0.004127778112888336,0.02303566411137581,-0.23637501895427704,-0.9691985249519348,0.10897650569677353
6.44,-0.08322133123874664,0.005459319334477186,0.008122402243316174,-0.24101100862026215,-0.9704185128211975,0.10284599661827087
6.46,-0.11517832428216934,0.004394086077809334,-0.005725627299398184,-0.24003499746322632,-0.9691985249519348,0.09674600511789322
6.48,-0.14713531732559204,0.00226362026296556,-0.01957365684211254,-0.23417900502681732,-0.974322497844696,0.09357400238513947
6.5,-0.1822880059480667,-0.005193010903894901,-0.03661738336086273,-0.2314949929714203,-0.9706624746322632,0.08747399598360062
6.52,-0.2142449915409088,-0.013714875094592571,-0.039813082665205,-0.23222701251506805,-0.9674904942512512,0.08381400257349014
6.54,-0.237680122256279,-0.033954303711652756,-0.04513924941420555,-0.23222701251506805,-0.9674904942512512,0.08381400257349014
6.56,-0.25898477435112,-0.038215234875679016,-0.04940018057823181,-0.2314949929714203,-0.9670025110244751,0.07991000264883041
6.58,-0.27389803528785706,-0.042476166039705276,-0.05259587988257408,-0.22832299768924713,-0.9648065567016602,0.07597550004720688
6.6,-0.29413747787475586,-0.042476166039705276,-0.06537867337465286,-0.22978699207305908,-0.9713944792747498,0.06035950034856796
6.62,-0.3122464418411255,-0.04993279650807381,-0.07283531129360199,-0.23247100412845612,-0.9733465313911438,0.05913950130343437
6.64,-0.3442034125328064,-0.048867564648389816,-0.09520520269870758,-0.23247100412845612,-0.9733465313911438,0.05913950130343437
6.66,-0.36763855814933777,-0.054193731397390366,-0.10585752874612808,-0.2244189828634262,-0.9735905528068542,0.0449570007622242
6.68,-0.38148656487464905,-0.047802332788705826,-0.11757509410381317,-0.21536050736904144,-0.9748104810714722,0.036416999995708466
6.7,-0.39000844955444336,-0.042476166039705276,-0.1260969638824463,-0.21755650639533997,-0.9774945378303528,0.0269009992480278
6.72,-0.34739911556243896,-0.052063263952732086,-0.15379302203655243,-0.21731248497962952,-0.9782265424728394,0.022996999323368073
6.74,-0.37189948558807373,-0.021171506494283676,-0.16124965250492096,-0.21023650467395782,-0.9787145256996155,0.0017385000828653574
6.76,-0.4070521593093872,-0.0030625448562204838,-0.18575000762939453,-0.20584450662136078,-0.9816425442695618,0.01613450050354004
6.78,-0.4837489426136017,-0.004127778112888336,-0.19320663809776306,-0.20584450662136078,-0.979446530342102,-0.00411750003695488
6.8,-0.5061188340187073,-0.0009320789249613881,-0.1900109350681305,-0.2063324898481369,-0.9713944792747498,-0.01659199967980385
6.82,-0.48587942123413086,-0.022236740216612816,-0.17616291344165802,-0.2063324898481369,-0.9713944792747498,-0.01659199967980385
6.84,-0.427291601896286,0.048068638890981674,-0.14420592784881592,-0.1929125040769577,-0.9513559937477112,-0.049318499863147736
6.86,-0.4155740439891815,0.043807707726955414,-0.10905323177576065,-0.16994599997997284,-0.9616345167160034,-0.06081699952483177
6.88,-0.39107367396354675,0.029959678649902344,-0.08455286920070648,-0.16994599997997284,-0.9616345167160034,-0.06081699952483177
6.9,-0.36763855814933777,-0.011584409512579441,-0.07283531129360199,-0.15600749850273132,-0.9652945399284363,-0.07765299826860428
6.92,-0.36976900696754456,-0.060585130006074905,-0.07603100687265396,-0.1399035006761551,-0.9635864496231079,-0.09671550244092941
6.94,-0.362312376499176,-0.10212921351194382,-0.10159660130739212,-0.1416115015745163,-0.9777385592460632,-0.1172420009970665
6.96,-0.32929015159606934,-0.09041165560483932,-0.11650986224412918,-0.14990749955177307,-0.9835944771766663,-0.12993000447750092
6.98,-0.28348514437675476,-0.07762885838747025,-0.11331415921449661,-0.1525914967060089,-0.9611465334892273,-0.1311500072479248
7,-0.22170162200927734,-0.04993279650807381,-0.10798799991607666,-0.16408999264240265,-0.9415960311889648,-0.13554200530052185
7.02,-0.16417904198169708,-0.027562905102968216,-0.09094426780939102,-0.16408999264240265,-0.9415960311889648,-0.13554200530052185
7.04,-0.12370018661022186,-0.007323476951569319,-0.06005251035094261,-0.168969988822937,-0.9308295249938965,-0.13603000342845917
7.06,-0.07256899774074554,0.016111649572849274,-0.02596505545079708,-0.17238600552082062,-0.9359839558601379,-0.13968999683856964
7.08,-0.018242115154862404,0.043807707726955414,-0.011051792651414871,-0.1718980073928833,-0.9428160190582275,-0.13603000342845917
7.1,0.04234301298856735,0.048068638890981674,-0.006790860556066036,-0.16283950209617615,-0.9325680732727051,-0.12675799429416656
7.12,0.08282186836004257,0.066177599132061,0.000665770610794425,-0.16283950209617615,-0.9476959705352783,-0.12748999893665314
7.14,0.07643046975135803,0.0874822586774826,0.007057168986648321,-0.16113150119781494,-0.964318573474884,-0.12626999616622925
7.16,0.06045197322964668,0.09706936031579971,0.009187635034322739,-0.1525914967060089,-0.9755424857139587,-0.11870599538087845
7.18,0.03595161437988281,0.09067796170711517,0.004926702938973904,-0.14258749783039093,-0.9792025089263916,-0.11184350401163101
7.2,0.013581721112132072,0.07256899774074554,-0.008921326138079166,-0.13843950629234314,-0.9774945378303528,-0.1101355031132698
7.22,-0.004394086077809334,0.023568280041217804,-0.02170412242412567,-0.14405149221420288,-0.9770064353942871,-0.10525550693273544
7.24,-0.058720968663692474,0.016111649572849274,-0.03235645219683647,-0.14356349408626556,-0.9694425463676453,-0.11281950771808624
7.26,-0.1290263533592224,-0.026497671380639076,-0.03874785080552101,-0.14673548936843872,-0.9696865081787109,-0.1008635014295578
7.28,-0.16417904198169708,-0.05632419511675835,-0.04833494871854782,-0.15625150501728058,-0.98066645860672,-0.11330750584602356
7.3,-0.17802706360816956,-0.07762885838747025,-0.05153064802289009,-0.16283950209617615,-0.9823745489120483,-0.12114600092172623
7.32,-0.17909230291843414,-0.08082455396652222,-0.06324820965528488,-0.168969988822937,-0.978470504283905,-0.12212200462818146
7.34,-0.17802706360816956,-0.06271559745073318,-0.08561810106039047,-0.1684820055961609,-0.9916769862174988,-0.1357859969139099
7.36,-0.20252743363380432,-0.061650361865758896,-0.09733566641807556,-0.16210749745368958,-0.9924090504646301,-0.14066599309444427
7.38,-0.23022349178791046,-0.042476166039705276,-0.11011846363544464,-0.161375492811203,-0.9821305274963379,-0.14557649195194244
7.4,-0.23128871619701385,-0.006258244160562754,-0.11544463038444519,-0.15576350688934326,-0.9709064960479736,-0.14899249374866486
7.42,-0.22915825247764587,0.00226362026296556,-0.13035789132118225,-0.13917149603366852,-0.9626104831695557,-0.15021249651908875
7.44,-0.237680122256279,-0.011584409512579441,-0.15485824644565582,-0.13230900466442108,-0.9660264849662781,-0.16290049254894257
7.46,-0.21104928851127625,-0.044606633484363556,-0.1580539494752884,-0.1281609982252121,-0.9648065567016602,-0.16021649539470673
7.48,-0.1844184696674347,0.0011983871227130294,-0.1463363915681839,-0.1386834979057312,-0.964074432849884,-0.17073900997638702
7.5,-0.17483137547969818,0.053394805639982224,-0.13887976109981537,-0.14673548936843872,-0.9300974607467651,-0.1819629967212677
7.52,-0.22276686131954193,0.07469946891069412,-0.1260969638824463,-0.14673548936843872,-0.9300974607467651,-0.1819629967212677
7.54,-0.20998406410217285,0.051264338195323944,-0.11544463038444519,-0.13206499814987183,-0.9205814599990845,-0.17805899679660797
7.56,-0.1290263533592224,0.019307348877191544,-0.06218297779560089,-0.13206499814987183,-0.9205814599990845,-0.17805899679660797
7.58,-0.057655736804008484,0.06298190355300903,-0.06963960826396942,-0.09616649895906448,-0.9364719390869141,-0.2117614895105362
7.6,0.00399462366476655,0.06298190355300903,-0.11757509410381317,-0.11840099841356277,-0.961390495300293,-0.22643199563026428
7.62,-0.08109086751937866,-0.12662957608699799,-0.12929265201091766,-0.06295200437307358,-0.984814465045929,-0.2181054949760437
7.64,-0.25152814388275146,-0.12982527911663055,-0.09413997083902359,-0.1147409975528717,-0.9735905528068542,-0.2298480123281479
7.66,-0.016111649572849274,-0.007323476951569319,0.02516612969338894,-0.08347850292921066,-0.8978589773178101,-0.22127750515937805
7.68,0.29693371057510376,0.14167599380016327,0.05392742156982422,-0.07685999572277069,-0.960170567035675,-0.2046855092048645
7.7,0.15206201374530792,0.04274247586727142,-0.02596505545079708,-0.098362497985363,-1.0119290351867676,-0.19858549535274506
7.72,0.07430000603199005,-0.027562905102968216,-0.015312724746763706,-0.098362497985363,-1.0119290351867676,-0.19858549535274506
7.74,0.0370168462395668,-0.055258963257074356,0.04966649040579796,-0.08689449727535248,-0.9569680094718933,-0.18464699387550354
7.76,0.030625449493527412,-0.10106398165225983,0.09440627694129944,-0.12108500301837921,-0.984814465045929,-0.20858949422836304
7.78,0.015712186694145203,-0.07443315535783768,0.10079767554998398,-0.10007049888372421,-0.9413520693778992,-0.1802549958229065
7.8,-0.004394086077809334,-0.08828118443489075,0.08588441461324692,-0.14234349131584167,-0.9591944813728333,-0.1878190040588379
7.82,-0.008655018173158169,-0.0829550251364708,0.07629731297492981,-0.12254900485277176,-0.9555040001869202,-0.20810149610042572
7.84,-0.06404713541269302,-0.048867564648389816,0.05286218971014023,-0.12254900485277176,-0.9555040001869202,-0.20810149610042572
7.86,-0.015046416781842709,0.0011983871227130294,0.02942706272006035,-0.1176690086722374,-0.960170567035675,-0.19907349348068237
7.88,-0.028894444927573204,0.04274247586727142,0.01877473294734955,-0.12547700107097626,-0.9704185128211975,-0.1807429939508438
7.9,-0.006524552125483751,0.015046416781842709,0.005991935729980469,-0.11449700593948364,-0.9628545045852661,-0.19221100211143494
7.92,-0.007589785382151604,-0.008388710208237171,0.02303566411137581,-0.11425299942493439,-0.9755424857139587,-0.18879500031471252
7.94,-0.013981183059513569,-0.044606633484363556,0.05925358831882477,-0.11986500769853592,-0.908381462097168,-0.18903900682926178
7.96,-0.18974463641643524,-0.17989122867584229,0.05818835273385048,-0.11864499747753143,-0.9022509455680847,-0.16802451014518738
7.98,-0.3303554058074951,-0.1788259893655777,0.06244928762316704,-0.13328500092029572,-0.9403759837150574,-0.2093214988708496
8,-0.6668358445167542,-0.15219517052173615,0.0038614696823060513,-0.14990749955177307,-0.9037150144577026,-0.2684305012226105
8.02,-0.836207926273346,-0.31091487407684326,0.12103710323572159,-0.15112748742103577,-1.1067230701446533,-0.23375199735164642
8.04,-1.1163642406463623,-0.15432563424110413,0.23168818652629852,-0.17702199518680573,-1.0556659698486328,-0.2589145004749298
8.06,-1.1706911325454712,-0.3716331720352173,0.08162347972393036,-0.17921799421310425,-0.9606585502624512,-0.15558050572872162
8.08,-0.3250292241573334,-0.12982527911663055,0.12636326253414154,-0.15625150501728058,-0.9196054935455322,-0.23521599173545837
8.1,0.20212796330451965,-0.24913136661052704,0.12742850184440613,-0.10202250629663467,-0.9662705063819885,-0.2735545039176941
8.12,0.4183702766895294,-0.1777607649564743,0.05712312087416649,-0.054655998945236206,-0.9748104810714722,-0.3172914981842041
8.14,0.4098483920097351,-0.07656362652778625,-0.06324820965528488,-0.10080250352621078,-0.9252175092697144,-0.2933489978313446
8.16,0.26391148567199707,-0.016910573467612267,-0.14953207969665527,-0.14868749678134918,-0.910333514213562,-0.2745305001735687
8.18,0.15099677443504333,0.004394086077809334,-0.14207544922828674,-0.18922200798988342,-0.9244855046272278,-0.2579385042190552
8.2,0.11477886140346527,0.033155377954244614,-0.10905323177576065,-0.21072448790073395,-0.9249734878540039,-0.2584264874458313
8.22,0.12436595559120178,0.067242830991745,-0.02809552103281021,-0.18312200903892517,-0.9459880590438843,-0.24765999615192413
8.24,0.1318225860595703,0.07150376588106155,0.009187635034322739,-0.17214199900627136,-0.9435479640960693,-0.2432679980993271
8.26,0.12330072373151779,0.05659050494432449,0.02303566411137581,-0.1445394903421402,-0.9286335110664368,-0.24107199907302856
8.28,0.16377957165241241,0.031024912372231483,0.0038614696823060513,-0.13474899530410767,-0.9340320229530334,-0.23424001038074493
8.3,0.2074541300535202,-0.0009320789249613881,0.02303566411137581,-0.12767300009727478,-0.9308295249938965,-0.2332640141248703
8.32,0.23195448517799377,0.012915950268507004,0.04327509179711342,-0.11888900399208069,-0.9445239901542664,-0.23570400476455688
8.34,0.2394111156463623,0.010785484686493874,0.05499265342950821,-0.1205969974398613,-0.9567239880561829,-0.22838400304317474
8.36,0.12862688302993774,-0.016910573467612267,0.009187635034322739,-0.13230900466442108,-0.964074432849884,-0.23887600004673004
8.38,-0.00226362026296556,-0.027562905102968216,-0.014247491955757141,-0.1503954976797104,-0.957211971282959,-0.22423599660396576
8.4,0.025299284607172012,0.022503048181533813,-0.03661738336086273,-0.16457799077033997,-0.9587064981460571,-0.22127750515937805
8.42,-0.019307348877191544,0.029959678649902344,-0.012117025442421436,-0.16457799077033997,-0.9587064981460571,-0.22127750515937805
8.44,0.013581721112132072,0.005459319334477186,0.04327509179711342,-0.1567395031452179,-0.9755424857139587,-0.22765198349952698
8.46,0.07323476672172546,0.00226362026296556,0.05499265342950821,-0.12181700021028519,-0.9481840133666992,-0.22078950703144073
8.48,0.04660394415259361,-0.04993279650807381,0.03901416063308716,-0.12474500387907028,-0.9459880590438843,-0.211029514670372
8.5,0.012516488321125507,-0.08402025699615479,0.02090519852936268,-0.11254499852657318,-0.9621224999427795,-0.2181054949760437
8.52,0.00399462366476655,-0.08082455396652222,0.005991935729980469,-0.13230900466442108,-0.9559919834136963,-0.21249349415302277
8.54,-0.011850717477500439,-0.07869409024715424,-0.015312724746763706,-0.1503954976797104,-0.9425719976425171,-0.211029514670372
8.56,0.06151720881462097,-0.03928046673536301,0.04220985993742943,-0.13697549700737,-0.9804224967956543,-0.2122495025396347
8.58,0.14034445583820343,-0.06484606117010117,0.09973244369029999,-0.1362130045890808,-0.9516000151634216,-0.21249349415302277
8.6,0.1659100502729416,-0.1681736707687378,0.15832026302814484,-0.12279299646615982,-0.9208254814147949,-0.21005350351333618
8.62,0.18934516608715057,-0.22463101148605347,0.2062557488679886,-0.12718500196933746,-0.9239975214004517,-0.21395748853683472
8.64,0.2404763549566269,-0.20758728682994843,0.22103585302829742,-0.12596499919891357,-0.9437919855117798,-0.21590949594974518
8.66,0.1957365721464157,-0.16604319214820862,0.1529940962791443,-0.16210749745368958,-0.964318573474884,-0.21566550433635712
8.68,0.1115831583738327,-0.14899946749210358,0.09121058136224747,-0.20145249366760254,-0.9518439769744873,-0.20322149991989136
8.7,0.08601756393909454,-0.08615072071552277,0.05818835273385048,-0.2156044989824295,-0.9472079873085022,-0.2054174840450287
8.72,0.12436595559120178,-0.0030625448562204838,0.04114462435245514,-0.2156044989824295,-0.9474520087242126,-0.19660300016403198
8.74,0.19147562980651855,0.053394805639982224,0.03155753016471863,-0.20194049179553986,-0.9491599798202515,-0.18855100870132446
8.76,0.2404763549566269,0.09387365728616714,0.02729659713804722,-0.18922200798988342,-0.9440360069274902,-0.1778150051832199
8.78,0.2948032319545746,0.1288931965827942,0.03262276202440262,-0.185806006193161,-0.929609477519989,-0.16363251209259033
8.8,0.31823837757110596,0.14593692123889923,0.05818835273385048,-0.18629398941993713,-0.9362279772758484,-0.15777650475502014
8.82,0.3469996452331543,0.1491326242685318,0.09440627694129944,-0.19510850310325623,-0.9611465334892273,-0.1568005084991455
8.84,0.36297816038131714,0.13634982705116272,0.1093195378780365,-0.19193650782108307,-0.9809104800224304,-0.15118850767612457
8.86,0.38321757316589355,0.12356702983379364,0.11571093648672104,-0.19632850587368011,-0.9801784753799438,-0.14484450221061707
8.88,0.4226312041282654,0.08215609937906265,0.11251524090766907,-0.16332750022411346,-0.9796904921531677,-0.1424044966697693
8.9,0.4758928418159485,0.067242830991745,0.12103710323572159,-0.15454350411891937,-0.9887490272521973,-0.13505400717258453
8.92,0.5419372916221619,0.07469946891069412,0.1306242048740387,-0.15576350688934326,-0.9809104800224304,-0.123586006462574
8.94,0.5696333646774292,0.08002562820911407,0.13488513231277466,-0.16408999264240265,-0.957211971282959,-0.0950075015425682
8.96,0.5568505525588989,0.06830807030200958,0.14447222650051117,-0.16408999264240265,-0.957211971282959,-0.0950075015425682
8.98,0.525958776473999,0.05232957378029823,0.16684211790561676,-0.1912045031785965,-0.9596824645996094,-0.08253300189971924
9,0.4631100594997406,0.029959678649902344,0.19027724862098694,-0.19340050220489502,-0.9633424878120422,-0.06447699666023254
9.02,0.3981308341026306,0.0011983871227130294,0.2041252851486206,-0.21487249433994293,-0.972370445728302,-0.036142498254776
9.04,0.3342168629169464,-0.012649642303586006,0.21997061371803284,-0.21487249433994293,-0.972370445728302,-0.036142498254776
9.06,0.28521615266799927,-0.030758604407310486,0.22742724418640137,-0.21929500997066498,-0.9709064960479736,-0.031964000314474106
9.08,0.2585853040218353,-0.040345702320337296,0.22742724418640137,-0.21905101835727692,-0.9718824625015259,-0.026108000427484512
9.1,0.2607157826423645,-0.048867564648389816,0.22636201977729797,-0.2302750051021576,-0.961390495300293,-0.008051999844610691
9.12,0.26710718870162964,-0.052063263952732086,0.21903854608535767,-0.22637099027633667,-0.9701744914054871,-0.000945500039961189
9.14,0.2692376375198364,-0.05312849581241608,0.20838621258735657,-0.2349109947681427,-0.9733465313911438,0.006862500216811895
9.16,0.26710718870162964,-0.037150003015995026,0.19240771234035492,-0.2522655129432678,-0.9711505174636841,0.012474499642848969
9.18,0.25325915217399597,-0.025432437658309937,0.1742987483739853,-0.2522655129432678,-0.9711505174636841,0.012474499642848969
9.2,0.2276935577392578,-0.015845341607928276,0.15938548743724823,-0.2669054865837097,-0.976518452167511,0.023973001167178154
9.22,0.2074541300535202,-0.008388710208237171,0.14766792953014374,-0.2669054865837097,-0.976518452167511,0.023973001167178154
9.24,0.1541924774646759,0.007589785382151604,0.11145000159740448,-0.2605614960193634,-0.965538501739502,0.02348499931395054
9.26,0.14780108630657196,0.0001331541279796511,0.10825430601835251,-0.2581214904785156,-0.9652945399284363,0.030561000108718872
9.28,0.07856093347072601,0.009720250964164734,0.06777545064687729,-0.2581214904785156,-0.9652945399284363,0.030561000108718872
9.3,0.03914731368422508,0.011850717477500439,0.04860125854611397,-0.26251348853111267,-0.964318573474884,0.032756999135017395
9.32,0.015712186694145203,0.012915950268507004,0.03794892504811287,-0.2705655097961426,-0.9626104831695557,0.04300500079989433
9.34,-0.017176883295178413,0.015046416781842709,0.02942706272006035,-0.27032148838043213,-0.9657825231552124,0.0449570007622242
9.36,-0.040612008422613144,0.013981183059513569,0.01877473294734955,-0.27032148838043213,-0.9657825231552124,0.0449570007622242
9.38,-0.06404713541269302,0.015046416781842709,0.004926702938973904,-0.26958951354026794,-0.9662705063819885,0.04715299978852272
9.4,-0.09706936031579971,0.015046416781842709,-0.013182258233428001,-0.27032148838043213,-0.9626104831695557,0.03983300179243088
9.42,-0.11624355614185333,0.013981183059513569,-0.03235645219683647,-0.2647095024585724,-0.9630984663963318,0.033976998180150986
9.44,-0.151396244764328,0.010785484686493874,-0.05579157918691635,-0.26129350066185,-0.9687105417251587,0.030561000108718872
9.46,-0.18867939710617065,0.006524552125483751,-0.07283531129360199,-0.26202550530433655,-0.9691985249519348,0.019306501373648643
9.48,-0.21957115828990936,0.0033288532868027687,-0.08668334037065506,-0.2664175033569336,-0.968222439289093,0.022265000268816948
9.5,-0.25152814388275146,0.004394086077809334,-0.09413997083902359,-0.265685498714447,-0.9689545631408691,0.016378499567508698
9.52,-0.2813546657562256,-0.0009320789249613881,-0.10585752874612808,-0.25568151473999023,-0.9699305295944214,0.006862500216811895
9.54,-0.3090507388114929,-0.005193010903894901,-0.1250317245721817,-0.25568151473999023,-0.9699305295944214,0.006862500216811895
9.56,-0.319703072309494,0.0001331541279796511,-0.13781452178955078,-0.25324150919914246,-0.9652945399284363,0.003446500049903989
9.58,-0.32715970277786255,0.0001331541279796511,-0.14420592784881592,-0.25055748224258423,-0.964318573474884,-0.0038735000416636467
9.6,-0.3335510790348053,-0.0009320789249613881,-0.1569887101650238,-0.24689750373363495,-0.9635864496231079,-0.013420000672340393
9.62,-0.33994248509407043,0.0001331541279796511,-0.1676410436630249,-0.24515901505947113,-0.9645625352859497,-0.019276000559329987
9.64,-0.34633389115333557,0.004394086077809334,-0.17296721041202545,-0.24027900397777557,-0.9657825231552124,-0.030988000333309174
9.66,-0.3559209704399109,0.008655018173158169,-0.18361954391002655,-0.23344700038433075,-0.964318573474884,-0.0407785028219223
9.68,-0.36124715209007263,0.008655018173158169,-0.19214141368865967,-0.23173899948596954,-0.9621224999427795,-0.04639049991965294
9.7,-0.3740299344062805,0.015046416781842709,-0.19427187740802765,-0.22515100240707397,-0.9684664607048035,-0.04858649894595146
9.72,-0.37935611605644226,0.016111649572849274,-0.19427187740802765,-0.22295500338077545,-0.9699305295944214,-0.05932249873876572
9.74,-0.3857475221157074,0.025698747485876083,-0.19214141368865967,-0.221002995967865,-0.9731025695800781,-0.07448099553585052
9.76,-0.39213889837265015,0.019307348877191544,-0.19214141368865967,-0.2121885120868683,-0.9652945399284363,-0.08472900092601776
9.78,-0.3878779709339142,0.015046416781842709,-0.178293377161026,-0.20950450003147125,-0.9611465334892273,-0.09403150528669357
9.8,-0.37829089164733887,0.019307348877191544,-0.1665758192539215,-0.20389249920845032,-0.9621224999427795,-0.10452349483966827
9.82,-0.37189948558807373,0.022503048181533813,-0.15379302203655243,-0.19925649464130402,-0.9628545045852661,-0.11159949749708176
9.84,-0.3655080795288086,0.023568280041217804,-0.15272778272628784,-0.18629398941993713,-0.964318573474884,-0.12407399713993073
9.86,-0.3559209704399109,0.025698747485876083,-0.1559234857559204,-0.18385399878025055,-0.9618784785270691,-0.1352979987859726
9.88,-0.343138188123703,0.019307348877191544,-0.15166255831718445,-0.18019400537014008,-0.9621224999427795,-0.14557649195194244
9.9,-0.3314206302165985,0.017176883295178413,-0.1452711522579193,-0.1718980073928833,-0.9630984663963318,-0.14972449839115143
9.92,-0.31650736927986145,0.018242115154862404,-0.14101022481918335,-0.17092199623584747,-0.9540400505065918,-0.15728850662708282
9.94,-0.2909417748451233,0.017176883295178413,-0.12822742760181427,-0.16652999818325043,-0.9606585502624512,-0.16460849344730377
9.96,-0.2802894413471222,0.010785484686493874,-0.11757509410381317,-0.16799400746822357,-0.9562360048294067,-0.17708300054073334
9.98,-0.26324570178985596,0.008655018173158169,-0.10692276805639267,-0.16283950209617615,-0.9542840719223022,-0.1831829994916916
10,-0.2472672164440155,0.00226362026296556,-0.09094426780939102,-0.16039951145648956,-0.9511120319366455,-0.1900150030851364
10.02,-0.2366148829460144,0.0033288532868027687,-0.07496577501296997,-0.16259551048278809,-0.9467200040817261,-0.19687749445438385
10.04,-0.22276686131954193,-0.006258244160562754,-0.0611177459359169,-0.15332350134849548,-0.9484279751777649,-0.19760949909687042
10.06,-0.21104928851127625,-0.004127778112888336,-0.05472634732723236,-0.1550315022468567,-0.9479399919509888,-0.20395350456237793
10.08,-0.19080986082553864,-0.001997311832383275,-0.04513924941420555,-0.16259551048278809,-0.9479399919509888,-0.20858949422836304
10.1,-0.16843996942043304,-0.0030625448562204838,-0.03342168778181076,-0.15747149288654327,-0.9437919855117798,-0.21078549325466156
10.12,-0.14926578104496002,-0.001997311832383275,-0.02489982172846794,-0.15747149288654327,-0.9435479640960693,-0.21078549325466156
10.14,-0.13754820823669434,-0.0030625448562204838,-0.02170412242412567,-0.15649549663066864,-0.9430599808692932,-0.21468950808048248
10.16,-0.12263495475053787,-0.005193010903894901,-0.02489982172846794,-0.15649549663066864,-0.9442799687385559,-0.21712949872016907
10.18,-0.10985215753316879,-0.008388710208237171,-0.0238345880061388,-0.15600749850273132,-0.9423280358314514,-0.22545598447322845
10.2,-0.0981345921754837,0.004394086077809334,-0.0185084231197834,-0.15576350688934326,-0.9425719976425171,-0.22545598447322845
10.22,-0.08215609937906265,0.0001331541279796511,-0.013182258233428001,-0.1550315022468567,-0.9391559958457947,-0.21761751174926758
10.24,-0.07043853402137756,0.0011983871227130294,-0.009986559860408306,-0.15478749573230743,-0.937936007976532,-0.2320440113544464
10.26,-0.043807707726955414,-0.005193010903894901,-0.0003994623839389533,-0.15698349475860596,-0.9386680126190186,-0.230335995554924
10.28,-0.020372580736875534,-0.006258244160562754,0.005991935729980469,-0.14893148839473724,-0.9394000172615051,-0.2281399965286255
10.3,-0.006524552125483751,0.0001331541279796511,0.005991935729980469,-0.14819949865341187,-0.9437919855117798,-0.23009200394153595
10.32,0.009320789016783237,-0.005193010903894901,0.009187635034322739,-0.14893148839473724,-0.9413520693778992,-0.23253199458122253
10.34,0.026364516466856003,-0.008388710208237171,0.01877473294734955,-0.15332350134849548,-0.9396439790725708,-0.22740799188613892
10.36,0.04234301298856735,-0.007323476951569319,0.02410089783370495,-0.15600749850273132,-0.9411080479621887,-0.2286279946565628
10.38,0.05938674136996269,-0.009453942999243736,0.02836182899773121,-0.1550315022468567,-0.9389119744300842,-0.2252119928598404
10.4,0.07323476672172546,-0.016910573467612267,0.03794892504811287,-0.15478749573230743,-0.9437919855117798,-0.22423599660396576
10.42,0.0902784988284111,-0.014780107885599136,0.03794892504811287,-0.1584475040435791,-0.940619945526123,-0.2210334986448288
10.44,0.10199606418609619,-0.016910573467612267,0.04434032365679741,-0.15869149565696716,-0.9386680126190186,-0.22322949767112732
10.46,0.11371362209320068,-0.012649642303586006,0.05712312087416649,-0.16064350306987762,-0.9408639669418335,-0.21737349033355713
10.48,0.12862688302993774,-0.007323476951569319,0.06031882017850876,-0.15869149565696716,-0.942084014415741,-0.21712949872016907
10.5,0.14673584699630737,-0.007323476951569319,0.0667102187871933,-0.16283950209617615,-0.9408639669418335,-0.211029514670372
10.52,0.16164910793304443,-0.005193010903894901,0.06990591436624527,-0.16357149183750153,-0.9437919855117798,-0.20956549048423767
10.54,0.1754971444606781,-0.009453942999243736,0.07842778414487839,-0.16408999264240265,-0.944767951965332,-0.20956549048423767
10.56,0.1872147023677826,-0.007323476951569319,0.08908011019229889,-0.16823799908161163,-0.9503800272941589,-0.20102550089359283
10.58,0.20212796330451965,-0.006258244160562754,0.09121058136224747,-0.16823799908161163,-0.9503800272941589,-0.20102550089359283
10.6,0.21064983308315277,-0.011584409512579441,0.09334104508161545,-0.1718980073928833,-0.9523320198059082,-0.19172300398349762
10.62,0.22556309401988983,-0.012649642303586006,0.10079767554998398,-0.1718980073928833,-0.9523320198059082,-0.19172300398349762
10.64,0.23408496379852295,-0.013714875094592571,0.11358047276735306,-0.17409400641918182,-0.9520879983901978,-0.1848910003900528
10.66,0.24154159426689148,-0.014780107885599136,0.12529803812503815,-0.17409400641918182,-0.9525759816169739,-0.18220700323581696
10.68,0.25645485520362854,-0.017975807189941406,0.1316894292831421,-0.18092601001262665,-0.9486719965934753,-0.16900049149990082
10.7,0.2692376375198364,-0.027562905102968216,0.14340700209140778,-0.185806006193161,-0.9547720551490784,-0.16753649711608887
10.72,0.2798899710178375,-0.031823836266994476,0.15618979930877686,-0.1836100071668625,-0.9569680094718933,-0.1550925076007843
10.74,0.2905423045158386,-0.030758604407310486,0.16471165418624878,-0.19019800424575806,-0.9606585502624512,-0.15192049741744995
10.76,0.2948032319545746,-0.031823836266994476,0.17110306024551392,-0.19486449658870697,-0.9589504599571228,-0.14533250033855438
10.78,0.29586848616600037,-0.03608476743102074,0.17642922699451447,-0.19852450489997864,-0.9626104831695557,-0.14188599586486816
10.8,0.30012941360473633,-0.029693370684981346,0.17536398768424988,-0.20267249643802643,-0.9589504599571228,-0.13627399504184723
10.82,0.3033251166343689,-0.027562905102968216,0.18175537884235382,-0.20901650190353394,-0.9662705063819885,-0.12724599242210388
10.84,0.30758604407310486,-0.025432437658309937,0.183885857462883,-0.21905101835727692,-0.9635864496231079,-0.1142834946513176
10.86,0.3065207898616791,-0.031823836266994476,0.183885857462883,-0.2197829931974411,-0.9667584896087646,-0.11062350869178772
10.88,0.3033251166343689,-0.026497671380639076,0.18921200931072235,-0.2227109968662262,-0.9628545045852661,-0.09964349865913391
10.9,0.2937380075454712,-0.021171506494283676,0.183885857462883,-0.22637099027633667,-0.965538501739502,-0.09183549880981445
10.92,0.2841508984565735,-0.016910573467612267,0.17855969071388245,-0.2290550023317337,-0.9704185128211975,-0.08399700373411179
10.94,0.27669426798820496,-0.004127778112888336,0.1742987483739853,-0.23857101798057556,-0.9713944792747498,-0.07472499459981918
10.96,0.27882474660873413,-0.001997311832383275,0.16790735721588135,-0.24762949347496033,-0.9626104831695557,-0.06350100040435791
10.98,0.272433340549469,-0.0030625448562204838,0.15618979930877686,-0.247141495347023,-0.9569680094718933,-0.06081699952483177
11,0.2585853040218353,0.0033288532868027687,0.14553746581077576,-0.2542175054550171,-0.959926426410675,-0.05663849785923958
11.02,0.24686774611473083,0.010785484686493874,0.13595037162303925,-0.25690150260925293,-0.9635864496231079,-0.054442498832941055
11.04,0.22662831842899323,0.013981183059513569,0.12103710323572159,-0.2593415081501007,-0.9677344560623169,-0.03833850100636482
11.06,0.20425842702388763,0.015046416781842709,0.11251524090766907,-0.26544150710105896,-0.9689545631408691,-0.023180000483989716
11.08,0.17336668074131012,0.022503048181533813,0.09653674066066742,-0.26544150710105896,-0.9689545631408691,-0.023180000483989716
11.1,0.14886631071567535,0.025698747485876083,0.08481918275356293,-0.2583654820919037,-0.9621224999427795,-0.024887999519705772
11.12,0.12330072373151779,0.017176883295178413,0.07097115367650986,-0.26495349407196045,-0.9650505185127258,-0.02147200144827366
11.14,0.09986559301614761,0.011850717477500439,0.05499265342950821,-0.26495349407196045,-0.9687105417251587,-0.008051999844610691
11.16,0.07856093347072601,0.005459319334477186,0.04966649040579796,-0.26495349407196045,-0.9687105417251587,-0.008051999844610691
11.18,0.05512581020593643,0.0001331541279796511,0.03155753016471863,-0.2639774978160858,-0.9684664607048035,-0.008295999839901924
11.2,0.025299284607172012,0.005459319334477186,0.01770949922502041,-0.2639774978160858,-0.9684664607048035,-0.008295999839901924
11.22,-0.012915950268507004,0.008655018173158169,0.000665770610794425,-0.2740119993686676,-0.9604145288467407,-0.014883999712765217
11.24,-0.040612008422613144,0.015046416781842709,-0.0185084231197834,-0.2740119993686676,-0.9604145288467407,-0.014883999712765217
11.26,-0.06298190355300903,0.012915950268507004,-0.02703028731048107,-0.27669599652290344,-0.9618784785270691,-0.01439599972218275
11.28,-0.0874822586774826,0.018242115154862404,-0.04726971685886383,-0.27669599652290344,-0.9618784785270691,-0.01439599972218275
11.3,-0.1087869256734848,0.021437814459204674,-0.0611177459359169,-0.2693455219268799,-0.9638304710388184,-0.019519999623298645
11.32,-0.13541774451732635,0.022503048181533813,-0.07283531129360199,-0.2705655097961426,-0.9606585502624512,-0.014883999712765217
11.34,-0.1524614691734314,0.021437814459204674,-0.08774857223033905,-0.2664175033569336,-0.9611465334892273,-0.02391200140118599
11.36,-0.17589659988880157,0.025698747485876083,-0.09840089827775955,-0.2583654820919037,-0.96236652135849,-0.027327999472618103
11.38,-0.19080986082553864,0.023568280041217804,-0.11331415921449661,-0.25909748673439026,-0.9630984663963318,-0.031964000314474106
11.4,-0.2057231217622757,0.021437814459204674,-0.1260969638824463,-0.2554375231266022,-0.9611465334892273,-0.036874499171972275
11.42,-0.2153102308511734,0.021437814459204674,-0.1346188187599182,-0.25153350830078125,-0.9684664607048035,-0.044194500893354416
11.44,-0.22915825247764587,0.022503048181533813,-0.14314068853855133,-0.2508015036582947,-0.9670025110244751,-0.04736649990081787
11.46,-0.24194104969501495,0.026763979345560074,-0.1474016159772873,-0.24592150747776031,-0.9662705063819885,-0.05639450252056122
11.48,-0.25472384691238403,0.026763979345560074,-0.1559234857559204,-0.2395469844341278,-0.9626104831695557,-0.061793003231287
11.5,-0.26324570178985596,0.025698747485876083,-0.15911918878555298,-0.23930299282073975,-0.9667584896087646,-0.06960099935531616
11.52,-0.278158962726593,0.027829213067889214,-0.16551057994365692,-0.22954300045967102,-0.9638304710388184,-0.07911700010299683
11.54,-0.28241991996765137,0.029959678649902344,-0.17190198600292206,-0.22588300704956055,-0.9628545045852661,-0.08399700373411179
11.56,-0.28561559319496155,0.03209014609456062,-0.17296721041202545,-0.22417499125003815,-0.9584320187568665,-0.09232349693775177
11.58,-0.28455036878585815,0.023568280041217804,-0.16977150738239288,-0.22588300704956055,-0.9587064981460571,-0.093299500644207
11.6,-0.2920069992542267,0.028894444927573204,-0.16444534063339233,-0.21804450452327728,-0.9652945399284363,-0.108427494764328
11.62,-0.2920069992542267,0.03209014609456062,-0.1687062829732895,-0.21365250647068024,-0.964074432849884,-0.10989149659872055
11.64,-0.29413747787475586,0.023568280041217804,-0.16551057994365692,-0.21243250370025635,-0.9609025120735168,-0.11943800002336502
11.66,-0.2930722236633301,0.033155377954244614,-0.16338011622428894,-0.2004764974117279,-0.9630984663963318,-0.1248060017824173
11.68,-0.28348514437675476,0.033155377954244614,-0.1559234857559204,-0.20145249366760254,-0.9591944813728333,-0.1282220035791397
11.7,-0.27602851390838623,0.031024912372231483,-0.15166255831718445,-0.19657249748706818,-0.9589504599571228,-0.1382260024547577
11.72,-0.26431095600128174,0.028894444927573204,-0.15272778272628784,-0.19092999398708344,-0.9579439759254456,-0.14850451052188873
11.74,-0.25898477435112,0.026763979345560074,-0.1463363915681839,-0.17994999885559082,-0.9628545045852661,-0.1614365130662918
11.76,-0.25472384691238403,0.027829213067889214,-0.13887976109981537,-0.17994999885559082,-0.9628545045852661,-0.1614365130662918
11.78,-0.24087581038475037,0.023568280041217804,-0.13355359435081482,-0.17799799144268036,-0.9584320187568665,-0.17098300158977509
11.8,-0.23341917991638184,0.025698747485876083,-0.1250317245721817,-0.17116598784923553,-0.959926426410675,-0.18049900233745575
11.82,-0.22276686131954193,0.022503048181533813,-0.12077079713344574,-0.16921399533748627,-0.9559919834136963,-0.17976699769496918
11.84,-0.20998406410217285,0.021437814459204674,-0.10798799991607666,-0.1601555049419403,-0.9564799666404724,-0.18855100870132446
11.86,-0.20252743363380432,0.018242115154862404,-0.1037270650267601,-0.16235150396823883,-0.9547720551490784,-0.19562700390815735
11.88,-0.19294032454490662,0.021437814459204674,-0.08561810106039047,-0.161375492811203,-0.9523320198059082,-0.19785350561141968
11.9,-0.18548369407653809,0.023568280041217804,-0.07283531129360199,-0.16357149183750153,-0.9481840133666992,-0.20224550366401672
11.92,-0.1737661361694336,0.016111649572849274,-0.05579157918691635,-0.15917949378490448,-0.9455000758171082,-0.2012694925069809
11.94,-0.15778763592243195,0.009720250964164734,-0.05153064802289009,-0.16088749468326569,-0.9437919855117798,-0.20248949527740479
11.96,-0.14500483870506287,0.007589785382151604,-0.05259587988257408,-0.15429949760437012,-0.9455000758171082,-0.2054174840450287
11.98,-0.12689588963985443,0.005459319334477186,-0.05366111174225807,-0.15283550322055817,-0.9445239901542664,-0.21395748853683472
12,-0.11304785311222076,0.006524552125483751,-0.04407401755452156,-0.15429949760437012,-0.9464760422706604,-0.21298149228096008
12.02,-0.0991998240351677,0.0001331541279796511,-0.03022598661482334,-0.15917949378490448,-0.9389119744300842,-0.2210334986448288
12.04,-0.08535179495811462,-0.0030625448562204838,-0.015312724746763706,-0.15795950591564178,-0.942084014415741,-0.22078950703144073
12.06,-0.06830807030200958,-0.004127778112888336,-0.008921326138079166,-0.1567395031452179,-0.9445239901542664,-0.22054548561573029
12.08,-0.061916667968034744,-0.0030625448562204838,-0.008921326138079166,-0.15405550599098206,-0.9430599808692932,-0.22960399091243744
12.1,-0.050199106335639954,-0.0030625448562204838,-0.005725627299398184,-0.15356750786304474,-0.9437919855117798,-0.230335995554924
12.12,-0.037416309118270874,-0.0009320789249613881,-0.0003994623839389533,-0.15185950696468353,-0.9445239901542664,-0.2257000058889389
12.14,-0.024633513763546944,0.0001331541279796511,0.000665770610794425,-0.15063950419425964,-0.9428160190582275,-0.22176551818847656
12.16,-0.007589785382151604,-0.001997311832383275,0.000665770610794425,-0.15161550045013428,-0.9391559958457947,-0.22322949767112732
12.18,0.009320789016783237,-0.004127778112888336,0.013448567129671574,-0.1538114994764328,-0.9413520693778992,-0.23009200394153595
12.2,0.018907885998487473,-0.005193010903894901,0.015579032711684704,-0.15161550045013428,-0.9455000758171082,-0.23131200671195984
12.22,0.026364516466856003,-0.007323476951569319,0.01770949922502041,-0.1491754949092865,-0.9437919855117798,-0.23058000206947327
12.24,0.03595161437988281,-0.007323476951569319,0.02410089783370495,-0.14722350239753723,-0.9418400526046753,-0.23082399368286133
12.26,0.04340824484825134,-0.007323476951569319,0.03262276202440262,-0.15161550045013428,-0.9508680105209351,-0.22667601704597473
12.28,0.05725627392530441,-0.005193010903894901,0.03581846132874489,-0.15161550045013428,-0.9508680105209351,-0.22667601704597473
12.3,0.06684337556362152,-0.006258244160562754,0.03688369318842888,-0.15356750786304474,-0.9484279751777649,-0.22371749579906464
12.32,0.07430000603199005,-0.005193010903894901,0.03794892504811287,-0.15332350134849548,-0.94623202085495,-0.22005750238895416
12.34,0.08708280324935913,-0.007323476951569319,0.04327509179711342,-0.15332350134849548,-0.94623202085495,-0.22005750238895416
12.36,0.09347419440746307,-0.009453942999243736,0.04753602296113968,-0.15893550217151642,-0.9455000758171082,-0.22176551818847656
12.38,0.10732222348451614,-0.007323476951569319,0.05286218971014023,-0.15454350411891937,-0.9479399919509888,-0.21615348756313324
12.4,0.11797455698251724,-0.013714875094592571,0.06138405203819275,-0.15942350029945374,-0.9506240487098694,-0.20785750448703766
12.42,0.12756165862083435,-0.012649642303586006,0.06564498692750931,-0.15893550217151642,-0.9508680105209351,-0.2076134830713272
12.44,0.13608351349830627,-0.016910573467612267,0.07097115367650986,-0.15893550217151642,-0.9508680105209351,-0.2076134830713272
12.46,0.14140968024730682,-0.016910573467612267,0.07416684925556183,-0.16652999818325043,-0.9459880590438843,-0.20395350456237793
12.48,0.14993155002593994,-0.022236740216612816,0.08162347972393036,-0.16482199728488922,-0.9450119733810425,-0.2012694925069809
12.5,0.1552577167749405,-0.023301972076296806,0.09014534205198288,-0.17116598784923553,-0.9425719976425171,-0.19956150650978088
12.52,0.16804051399230957,-0.023301972076296806,0.09760197252035141,-0.16994599997997284,-0.9537959694862366,-0.19760949909687042
12.54,0.18295377492904663,-0.024367205798625946,0.10079767554998398,-0.17262999713420868,-0.9596824645996094,-0.19513900578022003
12.56,0.19147562980651855,-0.022236740216612816,0.10505861043930054,-0.17994999885559082,-0.9518439769744873,-0.19172300398349762
12.58,0.19254086911678314,-0.022236740216612816,0.11038476973772049,-0.1789740025997162,-0.9552600383758545,-0.1819629967212677
12.6,0.1978670358657837,-0.019041040912270546,0.11358047276735306,-0.18165799975395203,-0.9540400505065918,-0.18611100316047668
12.62,0.20425842702388763,-0.019041040912270546,0.11677616834640503,-0.18483000993728638,-0.959926426410675,-0.17366699874401093
12.64,0.20958459377288818,-0.019041040912270546,0.1199718713760376,-0.1836100071668625,-0.9626104831695557,-0.16534049808979034
12.66,0.21597599983215332,-0.024367205798625946,0.12103710323572159,-0.18897800147533417,-0.9611465334892273,-0.1626565009355545
12.68,0.22023692727088928,-0.020106272771954536,0.12636326253414154,-0.1946205049753189,-0.961390495300293,-0.15411649644374847
12.7,0.22130216658115387,-0.020106272771954536,0.1306242048740387,-0.19657249748706818,-0.9537959694862366,-0.15094450116157532
12.72,0.22236739099025726,-0.017975807189941406,0.13701559603214264,-0.19950050115585327,-0.955016016960144,-0.14115400612354279
12.74,0.22236739099025726,-0.015845341607928276,0.1412765234708786,-0.20852848887443542,-0.9584320187568665,-0.13481000065803528
12.76,0.22130216658115387,-0.021171506494283676,0.1423417627811432,-0.20535649359226227,-0.9606585502624512,-0.12871000170707703
12.78,0.22236739099025726,-0.016910573467612267,0.13808083534240723,-0.20560051500797272,-0.9667584896087646,-0.12748999893665314
12.8,0.22130216658115387,-0.016910573467612267,0.13701559603214264,-0.21121250092983246,-0.9594384431838989,-0.11675400286912918
12.82,0.22343263030052185,-0.017975807189941406,0.1316894292831421,-0.215116485953331,-0.9562360048294067,-0.10915949940681458
12.84,0.2276935577392578,-0.019041040912270546,0.12529803812503815,-0.21880699694156647,-0.9594384431838989,-0.108427494764328
12.86,0.22236739099025726,-0.026497671380639076,0.1199718713760376,-0.22173500061035156,-0.9618784785270691,-0.10110750049352646
12.88,0.22130216658115387,-0.026497671380639076,0.11677616834640503,-0.2261269986629486,-0.964318573474884,-0.10110750049352646
12.9,0.21064983308315277,-0.025432437658309937,0.11677616834640503,-0.227835014462471,-0.9650505185127258,-0.09598349779844284
12.92,0.20106273889541626,-0.027562905102968216,0.1199718713760376,-0.23564299941062927,-0.9687105417251587,-0.09305550158023834
12.94,0.18401899933815002,-0.023301972076296806,0.11890663951635361,-0.23881500959396362,-0.9677344560623169,-0.09012749791145325
12.96,0.17123620212078094,-0.015845341607928276,0.11784140020608902,-0.24027900397777557,-0.9618784785270691,-0.08668100088834763
12.98,0.16377957165241241,-0.015845341607928276,0.11251524090766907,-0.23905900120735168,-0.9626104831695557,-0.07570099830627441
13,0.16058388352394104,-0.016910573467612267,0.10399337112903595,-0.24101100862026215,-0.9616345167160034,-0.0752130001783371
13.02,0.14993155002593994,-0.011584409512579441,0.09014534205198288,-0.24223099648952484,-0.9670025110244751,-0.06813699752092361
13.04,0.13821399211883545,-0.009453942999243736,0.07523208111524582,-0.2483614981174469,-0.9626104831695557,-0.06398900598287582
13.06,0.1328878253698349,-0.005193010903894901,0.06457975506782532,-0.2500694990158081,-0.9591944813728333,-0.06005449965596199
13.08,0.12330072373151779,0.0011983871227130294,0.06244928762316704,-0.2542175054550171,-0.9616345167160034,-0.05078250169754028
13.1,0.11477886140346527,0.004394086077809334,0.05818835273385048,-0.25275349617004395,-0.9630984663963318,-0.04883049800992012
13.12,0.1009308323264122,0.009720250964164734,0.05073172226548195,-0.252997487783432,-0.9616345167160034,-0.05029449984431267
13.14,0.07749570161104202,0.011850717477500439,0.04114462435245514,-0.25031349062919617,-0.9638304710388184,-0.0512705035507679
13.16,0.05619104206562042,0.012915950268507004,0.02516612969338894,-0.25446149706840515,-0.9628545045852661,-0.046878501772880554
13.18,0.03488638252019882,0.013981183059513569,0.015579032711684704,-0.257145494222641,-0.9691985249519348,-0.04468249902129173
13.2,0.016777420416474342,0.011850717477500439,0.0027962366584688425,-0.25738948583602905,-0.9626104831695557,-0.04712250083684921
13.22,-0.004394086077809334,0.013981183059513569,-0.0014646954368799925,-0.25738948583602905,-0.9650505185127258,-0.04273049905896187
13.24,-0.016111649572849274,0.012915950268507004,-0.013182258233428001,-0.2598295211791992,-0.9618784785270691,-0.04517050087451935
13.26,-0.03528584539890289,0.013981183059513569,-0.01744319126009941,-0.252997487783432,-0.9618784785270691,-0.040534500032663345
13.28,-0.050199106335639954,0.009720250964164734,-0.02703028731048107,-0.25446149706840515,-0.9606585502624512,-0.04126650094985962
13.3,-0.061916667968034744,0.015046416781842709,-0.03129122033715248,-0.25324150919914246,-0.9638304710388184,-0.04541449993848801
13.32,-0.08535179495811462,0.010785484686493874,-0.04620448127388954,-0.2551935017108917,-0.9674904942512512,-0.0483424998819828
13.34,-0.10133028775453568,0.012915950268507004,-0.05472634732723236,-0.25324150919914246,-0.9674904942512512,-0.047854501754045486
13.36,-0.11730878800153732,0.013981183059513569,-0.05685681104660034,-0.2525095045566559,-0.9635864496231079,-0.05737049877643585
13.38,-0.13648298382759094,0.016111649572849274,-0.06963960826396942,-0.2500694990158081,-0.965538501739502,-0.05663849785923958
13.4,-0.14820054173469543,0.021437814459204674,-0.07816147059202194,-0.24933749437332153,-0.960170567035675,-0.059566497802734375
13.42,-0.16098333895206451,0.018242115154862404,-0.08561810106039047,-0.24762949347496033,-0.961390495300293,-0.05615050345659256
13.44,-0.16950520873069763,0.020372580736875534,-0.0930747389793396,-0.24738550186157227,-0.959926426410675,-0.06496500223875046
13.46,-0.1737661361694336,0.015046416781842709,-0.09627043455839157,-0.24345099925994873,-0.96236652135849,-0.06374499946832657
13.48,-0.17802706360816956,0.017176883295178413,-0.1037270650267601,-0.24052299559116364,-0.9650505185127258,-0.07252899557352066
13.5,-0.19080986082553864,0.024633513763546944,-0.11011846363544464,-0.23637501895427704,-0.9667584896087646,-0.08009299635887146
13.52,-0.19933173060417175,0.034220609813928604,-0.11544463038444519,-0.24052299559116364,-0.9626104831695557,-0.08399700373411179
13.54,-0.19933173060417175,0.03209014609456062,-0.11331415921449661,-0.23466700315475464,-0.9594384431838989,-0.08716899901628494
13.56,-0.20998406410217285,0.034220609813928604,-0.12290126085281372,-0.2290550023317337,-0.9633424878120422,-0.09305550158023834
13.58,-0.20998406410217285,0.03209014609456062,-0.1260969638824463,-0.22637099027633667,-0.9574559926986694,-0.09207950532436371
13.6,-0.21104928851127625,0.036351077258586884,-0.13035789132118225,-0.221002995967865,-0.9594384431838989,-0.09866750240325928
13.62,-0.22276686131954193,0.03954677656292915,-0.13248835504055023,-0.22295500338077545,-0.960170567035675,-0.10891549289226532
13.64,-0.23022349178791046,0.040612008422613144,-0.13035789132118225,-0.21731248497962952,-0.9657825231552124,-0.11208749562501907
13.66,-0.23235395550727844,0.036351077258586884,-0.13248835504055023,-0.21340849995613098,-0.96236652135849,-0.11870599538087845
13.68,-0.23448441922664642,0.03848154470324516,-0.13781452178955078,-0.2114565074443817,-0.9621224999427795,-0.12236599624156952
13.7,-0.237680122256279,0.036351077258586884,-0.1356840580701828,-0.20584450662136078,-0.96236652135849,-0.1289539933204651
13.72,-0.23448441922664642,0.036351077258586884,-0.13248835504055023,-0.2046245038509369,-0.9635864496231079,-0.1306620091199875
13.74,-0.23022349178791046,0.033155377954244614,-0.12822742760181427,-0.20316050946712494,-0.9650505185127258,-0.1294419914484024
13.76,-0.23022349178791046,0.029959678649902344,-0.12716218829154968,-0.19852450489997864,-0.9594384431838989,-0.14362449944019318
13.78,-0.22915825247764587,0.022503048181533813,-0.12290126085281372,-0.18971000611782074,-0.960170567035675,-0.1546044945716858
13.8,-0.22063638269901276,0.029959678649902344,-0.12077079713344574,-0.18727000057697296,-0.9574559926986694,-0.1580204963684082
13.82,-0.22170162200927734,0.024633513763546944,-0.10159660130739212,-0.18556199967861176,-0.9596824645996094,-0.16656050086021423
13.84,-0.2153102308511734,0.028894444927573204,-0.09413997083902359,-0.1789740025997162,-0.9533079862594604,-0.17073900997638702
13.86,-0.21211452782154083,0.025698747485876083,-0.09094426780939102,-0.17409400641918182,-0.9528200030326843,-0.17757099866867065
13.88,-0.20785360038280487,0.021437814459204674,-0.0930747389793396,-0.1684820055961609,-0.9557480216026306,-0.18123099207878113
13.9,-0.20039696991443634,0.020372580736875534,-0.08668334037065506,-0.16652999818325043,-0.9576999545097351,-0.18928299844264984
13.92,-0.1940055638551712,0.015046416781842709,-0.08135717362165451,-0.16775000095367432,-0.9520879983901978,-0.1941629946231842
13.94,-0.18867939710617065,0.011850717477500439,-0.07496577501296997,-0.168969988822937,-0.9589504599571228,-0.19956150650978088
13.96,-0.18548369407653809,0.013981183059513569,-0.07390054315328598,-0.1643339991569519,-0.9542840719223022,-0.20102550089359283
13.98,-0.17696183919906616,0.010785484686493874,-0.06324820965528488,-0.16408999264240265,-0.9540400505065918,-0.2105415016412735
14,-0.1716356724500656,0.013981183059513569,-0.05685681104660034,-0.15747149288654327,-0.9479399919509888,-0.211029514670372
14.02,-0.16098333895206451,0.010785484686493874,-0.05259587988257408,-0.15747149288654327,-0.9479399919509888,-0.211029514670372
14.04,-0.151396244764328,0.0033288532868027687,-0.04407401755452156,-0.1601555049419403,-0.9472079873085022,-0.20736949145793915
14.06,-0.13861344754695892,-0.007323476951569319,-0.03448691964149475,-0.16357149183750153,-0.9445239901542664,-0.2181054949760437
14.08,-0.1290263533592224,-0.007323476951569319,-0.03235645219683647,-0.15698349475860596,-0.9435479640960693,-0.21834948658943176
14.1,-0.11730878800153732,-0.009453942999243736,-0.02489982172846794,-0.15771549940109253,-0.940619945526123,-0.22030149400234222
14.12,-0.10985215753316879,-0.014780107885599136,-0.01744319126009941,-0.15820351243019104,-0.9384239912033081,-0.2269200086593628
14.14,-0.10452599078416824,-0.017975807189941406,-0.008921326138079166,-0.15820351243019104,-0.9384239912033081,-0.2269200086593628
14.16,-0.09174319356679916,-0.014780107885599136,-0.008921326138079166,-0.16039951145648956,-0.940619945526123,-0.23009200394153595
14.18,-0.07576470077037811,-0.013714875094592571,-0.0025299284607172012,-0.16064350306987762,-0.9389119744300842,-0.23301999270915985
14.2,-0.06830807030200958,-0.014780107885599136,-0.004660394508391619,-0.16064350306987762,-0.9389119744300842,-0.23301999270915985
14.22,-0.058720968663692474,-0.013714875094592571,-0.0014646954368799925,-0.1655540019273758,-0.937936007976532,-0.23472799360752106
14.24,-0.04593817517161369,-0.009453942999243736,-0.00359516148455441,-0.1584475040435791,-0.9430599808692932,-0.23594799637794495
14.26,-0.033155377954244614,-0.006258244160562754,0.000665770610794425,-0.15991149842739105,-0.9430599808692932,-0.23546001315116882
14.28,-0.018242115154862404,-0.001997311832383275,0.004926702938973904,-0.1601555049419403,-0.9418400526046753,-0.24107199907302856
14.3,-0.0033288532868027687,0.0011983871227130294,0.009187635034322739,-0.1630835086107254,-0.9411080479621887,-0.23863200843334198
14.32,0.002929390873759985,0.004394086077809334,0.008122402243316174,-0.1643339991569519,-0.9394000172615051,-0.236191987991333
14.34,0.009320789016783237,0.0033288532868027687,0.008122402243316174,-0.1601555049419403,-0.9408639669418335,-0.2396080046892166
14.36,0.3065207898616791,0.4037233293056488,0.06244928762316704,0.08164849877357483,0.16082648932933807,0.964165985584259
14.38,0.3480648994445801,0.14487169682979584,0.07629731297492981,0.08164849877357483,0.16082648932933807,0.964165985584259
14.4,-0.027829213067889214,-0.026497671380639076,0.16364642977714539,-0.009699000045657158,0.24851401150226593,0.9468115568161011
14.42,-0.13328728079795837,-0.06484606117010117,0.17749445140361786,-0.010187000036239624,0.2727005183696747,0.9651420712471008
14.44,-0.1300915777683258,-0.010519175790250301,0.22742724418640137,-0.010187000036239624,0.2727005183696747,0.9651420712471008
14.46,-0.0874822586774826,0.012915950268507004,0.2561885416507721,-0.011651000007987022,0.26827800273895264,1.0091229677200317
14.48,-0.050199106335639954,-0.014780107885599136,0.29134124517440796,0.0000914999982342124,0.25363799929618835,0.98078852891922
14.5,-0.09493889659643173,-0.050998032093048096,0.29240646958351135,0.0000914999982342124,0.25363799929618835,0.98078852891922
14.52,-0.13435252010822296,-0.08188978582620621,0.2870802879333496,0.005947500001639128,0.2509540021419525,0.9697780609130859
14.54,-0.10559122264385223,-0.06804175674915314,0.2679060995578766,0.013755499385297298,0.24265798926353455,0.9854245185852051
14.56,-0.09387365728616714,0.005459319334477186,0.2551233172416687,0.023515500128269196,0.23555149137973785,0.9954285025596619
14.58,-0.0555252730846405,0.008655018173158169,0.24234052002429962,0.02400350011885166,0.23189149796962738,0.9939644932746887
14.6,-0.04913387447595596,-0.05312849581241608,0.19666863977909088,0.03159800171852112,0.22091150283813477,0.9983565211296082
14.62,-0.09280842542648315,-0.04993279650807381,0.12742850184440613,0.04013799875974655,0.21209700405597687,0.991768479347229
14.64,-0.14393961429595947,-0.061650361865758896,0.03901416063308716,0.04794600233435631,0.20477698743343353,0.9905484914779663
14.66,-0.11517832428216934,-0.031823836266994476,-0.03235645219683647,0.06383650004863739,0.1891610026359558,0.9990885257720947
14.68,-0.005459319334477186,-0.030758604407310486,-0.03874785080552101,0.044530000537633896,0.2118529975414276,1.028154969215393
14.7,0.09347419440746307,-0.006258244160562754,-0.005725627299398184,0.01277950033545494,0.23677149415016174,1.0205910205841064
14.72,0.09666989743709564,-0.015845341607928276,0.0017310036346316338,0.016927499324083328,0.23555149137973785,0.9925005435943604
14.74,0.00719032296910882,-0.020106272771954536,-0.02809552103281021,0.03281800076365471,0.22676749527454376,0.9651420712471008
14.76,-0.06298190355300903,-0.03288906812667847,-0.03235645219683647,0.026199501007795334,0.23311150074005127,0.9736820459365845
14.78,-0.057655736804008484,-0.054193731397390366,-0.015312724746763706,0.017171500250697136,0.24189549684524536,0.9851804971694946
14.8,-0.029959678649902344,-0.058454662561416626,0.0027962366584688425,0.013023500330746174,0.2387235015630722,1.0005524158477783
14.82,0.009320789016783237,-0.03608476743102074,0.011318100616335869,0.029401998966932297,0.23042751848697662,1.000064492225647
14.84,0.012516488321125507,-0.028628136962652206,0.005991935729980469,0.03550200164318085,0.22676749527454376,0.9971365332603455
14.86,0.014646953903138638,-0.0009320789249613881,0.000665770610794425,0.030865998938679695,0.2282315194606781,0.9944524765014648
14.88,0.015712186694145203,0.031024912372231483,-0.006790860556066036,0.02668749913573265,0.22969549894332886,0.9861565232276917
14.9,-0.0033288532868027687,0.034220609813928604,-0.005725627299398184,0.025223499163985252,0.23164750635623932,0.9778605103492737
14.92,0.008255556225776672,0.051264338195323944,-0.0025299284607172012,0.023759499192237854,0.23603950440883636,0.9966484308242798
14.94,0.03595161437988281,0.08535179495811462,-0.0025299284607172012,0.028425998985767365,0.23433150351047516,0.9951844811439514
14.96,0.024234050884842873,0.1374150663614273,0.000665770610794425,0.024491500109434128,0.2328675091266632,0.9829844832420349
14.98,-0.0001331541279796511,0.15126308798789978,-0.0025299284607172012,0.02034349925816059,0.23677149415016174,0.964165985584259
15,-0.034220609813928604,0.1267627328634262,0.004926702938973904,0.014487499371170998,0.23603950440883636,0.9753900170326233
15.02,-0.047003407031297684,0.11184946447610855,0.0027962366584688425,0.01668350026011467,0.23311150074005127,0.9893285036087036
15.04,0.07323476672172546,0.14700216054916382,-0.0025299284607172012,0.01107150036841631,0.23067151010036469,0.9932325482368469
15.06,0.0370168462395668,-0.059519894421100616,0.02516612969338894,-0.008723000064492226,0.21944749355316162,0.9749020338058472
15.08,-0.07363422960042953,0.010785484686493874,-0.005725627299398184,0.025955500081181526,0.24241399765014648,0.983472466468811
15.1,-0.06937330216169357,0.013981183059513569,-0.01744319126009941,0.0205875001847744,0.24067549407482147,1.0132709741592407
15.12,0.0018641578499227762,0.004394086077809334,-0.014247491955757141,0.0020435000769793987,0.2387235015630722,1.0362374782562256
15.14,0.06577813625335693,0.013981183059513569,-0.004660394508391619,0.004483500029891729,0.23335549235343933,1.0044870376586914
