timestamp,gyro_x,gyro_y,gyro_z,acc_x,acc_y,acc_z
0,0.2926727831363678,0.23009033501148224,0.22849248349666595,0.08607099950313568,0.08143500238656998,1.0890024900436401
0.02,0.24260681867599487,0.3195699155330658,0.2774932086467743,0.021319499239325523,0.0807029977440834,1.0367255210876465
0.04,0.1754971444606781,0.31317850947380066,0.23594911396503448,0.02571149915456772,0.09534300118684769,1.0283989906311035
0.06,0.17336668074131012,0.23754696547985077,0.15405932068824768,0.00692349998280406,0.0911950021982193,1.0716480016708374
0.08,0.3544562757015228,0.05978620424866676,0.02836182899773121,0.02693150006234646,0.10684150457382202,1.1891340017318726
0.1,0.571763813495636,-0.18095645308494568,-0.08561810106039047,0.00789950042963028,0.13468800485134125,1.225795030593872
0.12,0.3672390878200531,-0.21930484473705292,-0.19746756553649902,0.008387499488890171,0.12099350243806839,1.1148970127105713
0.14,0.14034445583820343,0.21837277710437775,-0.08774857223033905,-0.03681349754333496,0.09778299927711487,0.9998204708099365
0.16,0.1328878253698349,0.491072416305542,-0.03129122033715248,0.060664497315883636,0.11586949974298477,1.0890024900436401
0.18,0.04660394415259361,1.2397980690002441,-0.04407401755452156,0.014975500293076038,0.14298400282859802,1.1710779666900635
0.2,0.19360610842704773,1.545386791229248,0.4692351520061493,0.05136200040578842,0.07384049892425537,1.2604734897613525
0.22,0.38534805178642273,1.4015803337097168,0.8250229954719543,-0.017506999894976616,0.15835599601268768,1.4571070671081543
0.24,0.3768261969089508,1.1045135259628296,-0.04194355010986328,0.16497449576854706,0.1454240083694458,1.380887508392334
0.26,0.9242228269577026,0.5816172361373901,-0.7832126021385193,0.3476695120334625,0.2917324900627136,1.3134825229644775
0.28,1.26496422290802,-1.5942543745040894,-0.8801487684249878,0.07798849791288376,0.12367750704288483,1.203560471534729
0.3,1.4854674339294434,-1.6230156421661377,-0.7725602388381958,-0.01823900081217289,0.06774049997329712,1.0977864265441895
0.32,1.2532466650009155,0.1800243854522705,-0.2730991244316101,-0.07393199950456619,0.11952950060367584,1.089978575706482
0.34,0.6238270998001099,2.154567003250122,0.48308318853378296,-0.09153049439191818,0.13932400941848755,1.0513654947280884
0.36,-0.3527252972126007,3.219533681869507,1.5320713520050049,-0.19364449381828308,0.0777445062994957,1.0012845993041992
0.38,-0.9097089767456055,1.4601681232452393,1.6034419536590576,-0.0756400004029274,0.11708950251340866,0.6424520015716553
0.4,-0.8330122232437134,-1.3183590173721313,1.6034419536590576,-0.1840979903936386,0.056760501116514206,0.7914749979972839
0.42,0.06577813625335693,-3.0819854736328125,1.8740111589431763,-0.16970200836658478,-0.02067900076508522,0.8418000340461731
0.44,0.9700278043746948,-4.973439693450928,2.468278169631958,-0.16531001031398773,-0.1357250064611435,0.7431020140647888
0.46,1.664426565170288,-6.8116326332092285,3.864532232284546,-0.19901250302791595,-0.1933699995279312,0.6246399879455566
0.48,1.77201509475708,-6.656108379364014,4.5939507484436035,0.06920450180768967,-0.1450275033712387,0.343704491853714
0.5,1.349117636680603,-5.406856536865234,4.635494709014893,0.2812405228614807,-0.07295600324869156,0.1903200000524521
0.52,0.7133066654205322,-5.209921360015869,5.701526641845703,0.02745000086724758,-0.40321001410484314,0.029340999200940132
0.54,0.24793298542499542,-5.1342902183532715,6.874215126037598,0.02745000086724758,-0.40321001410484314,0.029340999200940132
0.56,-0.49972742795944214,-5.430291652679443,7.65156888961792,0.11733350157737732,-0.721019983291626,-0.07423700392246246
0.58,-1.0247541666030884,-4.957461357116699,7.774070739746094,0.7194644808769226,-0.8751364350318909,0.2665089964866638
0.6,-1.005579948425293,-2.792375326156616,7.804962158203125,0.7194644808769226,-0.8751364350318909,0.2665089964866638
0.62,0.08814803510904312,-0.9339430332183838,7.100976467132568,1.1252059936523438,-0.9833505153656006,0.9363194704055786
0.64,1.4790760278701782,-1.1107717752456665,5.903920650482178,2.003605842590332,-0.6418725252151489,1.55629301071167
0.66,3.2096803188323975,-0.7453967928886414,3.9655961990356445,2.003605842590332,-0.6418725252151489,1.55629301071167
0.68,4.138430118560791,-0.2427399754524231,1.8740111589431763,2.346791982650757,-0.3724355101585388,1.393362045288086
0.7,3.974384307861328,0.2961347699165344,-0.7363423109054565,2.583014488220215,-0.011163000017404556,0.8249334692955017
0.72,2.841242790222168,0.7615084648132324,-2.494642496109009,2.4423179626464844,0.12123750150203705,-0.015371999703347683
0.74,0.570698618888855,0.9255543351173401,-3.786504030227661,2.0756776332855225,0.0672525018453598,-0.6653880476951599
0.76,-1.338864803314209,1.6284749507904053,-4.043091773986816,1.4351774454116821,-0.129381000995636,-1.1729689836502075
0.78,-1.5029106140136719,1.0469908714294434,-4.185832977294922,0.9832895398139954,-0.3690195083618164,-0.7450234889984131
0.8,-0.2920069992542267,-1.3215546607971191,-3.744959831237793,0.5003525018692017,-0.6611790060997009,0.2748354971408844
0.82,0.08388710021972656,-3.25242280960083,-2.2166168689727783,-0.7894009947776794,-0.7188239693641663,0.31024599075317383
0.84,0.5589810013771057,-3.60807728767395,0.22955772280693054,-0.7894009947776794,-0.7188239693641663,0.31024599075317383
0.86,-0.9555140137672424,-0.3567199110984802,1.2488526105880737,-0.2727614939212799,-0.7669225335121155,0.7729005217552185
0.88,-4.185699939727783,2.824465274810791,-0.14953207969665527,1.1774829626083374,0.36966001987457275,-1.5105735063552856
0.9,-4.084502696990967,2.552830934524536,-0.686276376247406,1.6237590312957764,-0.4303244948387146,0.8549760580062866
0.92,-1.9917194843292236,-0.3268933892250061,-1.5713518857955933,1.140821933746338,-0.8130995035171509,1.3010079860687256
0.94,-1.4475184679031372,-0.8870728015899658,-0.8247566819190979,0.5059645175933838,-0.8302099704742432,0.6702985167503357
0.96,-1.2664289474487305,-1.7283406257629395,-0.5446003675460815,0.6752395033836365,-0.45792698860168457,0.07377950102090836
0.98,-1.111038088798523,-1.6837339401245117,-0.4721645414829254,0.9437004923820496,-0.5187439918518066,0.30658599734306335
1,-1.3995829820632935,-0.5824161767959595,-0.48814302682876587,1.1163915395736694,-0.6477285027503967,0.36959901452064514
1.02,-1.6030426025390625,-0.47283029556274414,-0.3583177626132965,1.0208959579467773,-0.41958847641944885,0.15954549610614777
1.04,-1.9107617139816284,-1.2906630039215088,-0.29227331280708313,1.0990675687789917,-0.3846355080604553,0.08674199879169464
1.06,-3.063077449798584,-1.160704493522644,0.03262276202440262,1.0700010061264038,-0.42764049768447876,0.07085149735212326
1.08,-4.425244331359863,-1.3918601274490356,1.2456568479537964,0.7641775012016296,-0.0949464961886406,-0.09207950532436371
1.1,-5.709649085998535,-0.5579158067703247,3.1914381980895996,0.6808514595031738,0.014487499371170998,0.06084749847650528
1.12,-5.4637131690979,-0.057389430701732635,4.870911121368408,0.3669759929180145,-0.34312498569488525,0.2206064909696579
1.14,-1.2770812511444092,3.443232536315918,2.703561305999756,0.6771914958953857,-1.0270874500274658,0.5699229836463928
1.16,0.3224993050098419,1.4772119522094727,0.46071329712867737,0.7604870200157166,-1.0476139783859253,0.06279949843883514
1.18,0.4002613127231598,1.2184934616088867,-0.04940018057823181,0.7964159846305847,-0.9609025120735168,0.11702849715948105
1.2,0.0902784988284111,-0.7240921258926392,0.22955772280693054,0.8738555312156677,-0.5986234545707703,0.04861700162291527
1.22,-0.08215609937906265,-0.22356578707695007,-0.05685681104660034,0.9258579611778259,-0.5627250075340271,0.21914249658584595
1.24,-0.18974463641643524,0.43248459696769714,-0.02489982172846794,0.7995880246162415,-0.5852034687995911,0.169793501496315
1.26,-0.26218047738075256,0.7094451785087585,-0.04300878196954727,0.7995880246162415,-0.5852034687995911,0.169793501496315
1.28,-0.23981058597564697,0.8552489876747131,-0.08987903594970703,0.7458469867706299,-0.5268265008926392,0.12434849888086319
1.3,-0.1940055638551712,0.7370080947875977,-0.0824224054813385,0.7460910081863403,-0.6089019775390625,0.0823500007390976
1.32,-0.19294032454490662,0.44313693046569824,-0.14846685528755188,0.8130080103874207,-0.5554049611091614,0.09308599680662155
1.34,-0.43474823236465454,0.20985090732574463,-0.40505486726760864,0.8450025320053101,-0.49824798107147217,0.026169002056121826
1.36,-0.9161003828048706,-0.5973294377326965,-0.4402075409889221,0.8750754594802856,-0.20901650190353394,-0.17879100143909454
1.38,-0.8596430420875549,-1.6720163822174072,0.6215634942054749,0.6002399921417236,-0.1911740005016327,0.03080500103533268
1.4,-0.2270277887582779,-1.1553783416748047,1.6322033405303955,0.4597874879837036,-0.4105300009250641,0.31951799988746643
1.42,0.20958459377288818,-1.2022485733032227,2.3479068279266357,0.5142605304718018,-0.594475507736206,0.2648009955883026
1.44,1.7155578136444092,-1.598515272140503,2.9581520557403564,0.6635274887084961,-0.4659790098667145,0.4375225305557251
1.46,2.6526966094970703,-2.9839839935302734,2.5833232402801514,0.6967419981956482,-0.6584950089454651,0.24015699326992035
1.48,1.1798787117004395,-1.987192153930664,1.3234188556671143,0.7182444930076599,-1.218353033065796,-0.3253434896469116
1.5,-0.3090507388114929,0.058720968663692474,1.2957228422164917,0.5101125240325928,-1.2830740213394165,-0.06569699943065643
1.52,-0.7009233236312866,0.10439283400774002,1.378811001777649,0.5829159617424011,-0.7864729762077332,-0.012199999764561653
1.54,-0.7137061357498169,-0.3609808385372162,1.4745488166809082,0.4395354986190796,-0.7874490022659302,-0.012199999764561653
1.56,0.0902784988284111,-2.314218759536743,2.1210122108459473,0.4143730103969574,-0.7903770208358765,-0.08963949978351593
1.58,0.4631100594997406,-1.6006457805633545,2.2925145626068115,0.6066145300865173,-1.1895304918289185,-0.036142498254776
1.6,-0.3740299344062805,0.3089175820350647,1.753639817237854,0.499376505613327,-1.0461499691009521,-0.15484850108623505
1.62,-0.3846822679042816,-0.07443315535783768,1.6652255058288574,0.31713899970054626,-0.8539084792137146,-0.016836000606417656
1.64,0.15738818049430847,-1.1990529298782349,1.92194664478302,0.3466934859752655,-0.9498920440673828,0.06914350390434265
1.66,0.36084768176078796,-1.5026443004608154,2.05603289604187,0.3701480031013489,-0.9779825210571289,-0.03589850291609764
1.68,0.3864132761955261,-1.8657556772232056,2.383059501647949,0.2609579861164093,-0.9117974638938904,-0.000945500039961189
1.7,0.5195674300193787,-1.9594961404800415,2.636584997177124,0.2231075018644333,-0.9880170226097107,-0.0016775000840425491
1.72,0.18295377492904663,-1.4078385829925537,2.675865411758423,0.11733350157737732,-1.1106269359588623,-0.19785350561141968
1.74,-0.0001331541279796511,-0.8572462797164917,2.342580556869507,0.11733350157737732,-1.1106269359588623,-0.19785350561141968
1.76,-0.10452599078416824,0.0991998240351677,1.3841371536254883,0.07384049892425537,-1.1248095035552979,-0.14801649749279022
1.78,-0.18974463641643524,-0.047802332788705826,0.6577813625335693,-0.07515200227499008,-0.7637504935264587,-0.01390800066292286
1.8,-0.4155740439891815,-0.3481980562210083,0.12636326253414154,-0.07515200227499008,-0.7637504935264587,-0.01390800066292286
1.82,-0.47629231214523315,-0.19054356217384338,-0.2091851383447647,-0.06319600343704224,-0.9096015095710754,-0.030500002205371857
1.84,-0.7041190266609192,-0.040345702320337296,-0.5339480638504028,-0.06319600343704224,-0.9096015095710754,-0.030500002205371857
1.86,-0.7861419916152954,0.10545806586742401,-0.8535179495811462,-0.1269410103559494,-1.042978048324585,-0.0559065006673336
1.88,-0.12689588963985443,-0.24913136661052704,-0.6979939341545105,0.034282002598047256,-1.221769094467163,-0.30777549743652344
1.9,1.1106386184692383,-0.020106272771954536,-0.1772281378507614,0.0538019984960556,-0.8683044910430908,-0.3038409948348999
1.92,1.4865326881408691,0.3376788794994354,-0.08029194176197052,0.043554000556468964,-0.8556165099143982,-0.1836709976196289
1.94,1.5078372955322266,0.18961147964000702,-0.23688119649887085,-0.004819000139832497,-0.8834630250930786,-0.17805899679660797
1.96,1.2852036952972412,-0.11704248189926147,-0.34340450167655945,0.09802700579166412,-0.9537959694862366,0.07475549727678299
1.98,1.0254199504852295,-0.21397867798805237,-0.5936011075973511,0.07896450161933899,-1.0700924396514893,0.004422500263899565
2,0.8262213468551636,-0.2203700840473175,-0.7619079351425171,0.14566799998283386,-0.9609025120735168,0.08918200433254242
2.02,0.7079805135726929,-0.25871846079826355,-0.7352771162986755,0.14566799998283386,-0.9609025120735168,0.08918200433254242
2.04,0.6589797735214233,-0.19800019264221191,-0.6106448173522949,0.19282101094722748,-0.9511120319366455,0.07182750105857849
2.06,0.6185009479522705,-0.15219517052173615,-0.36364391446113586,0.1815665066242218,-0.9540400505065918,0.07844600081443787
2.08,0.5185021758079529,-0.026497671380639076,-0.1356840580701828,0.15689200162887573,-0.9672464728355408,0.09674600511789322
2.1,0.375760942697525,0.041677240282297134,0.0347532257437706,0.15689200162887573,-0.9672464728355408,0.09674600511789322
2.12,0.30012941360473633,0.03209014609456062,0.02729659713804722,0.14152000844478607,-0.9706624746322632,0.10556049644947052
2.14,0.291607528924942,0.021437814459204674,-0.02916075475513935,0.1466439962387085,-0.9650505185127258,0.1441430002450943
2.16,0.35232582688331604,0.058720968663692474,-0.06005251035094261,0.1466439962387085,-0.9650505185127258,0.1441430002450943
2.18,0.4822842478752136,0.0991998240351677,-0.04726971685886383,0.14152000844478607,-0.9552600383758545,0.13706699013710022
2.2,0.5781552195549011,0.13315412402153015,-0.07070484012365341,0.140299990773201,-0.9418400526046753,0.14487500488758087
2.22,0.6653711795806885,0.13102366030216217,-0.11224892735481262,0.1688784956932068,-0.9369600415229797,0.15683099627494812
2.24,0.7026543617248535,0.11078423261642456,-0.10798799991607666,0.1786385029554367,-0.948915958404541,0.16662150621414185
2.26,0.7207632660865784,0.19813334941864014,-0.02809552103281021,0.1752225011587143,-0.9401319622993469,0.17930950224399567
2.28,0.7026543617248535,0.26950395107269287,0.06990591436624527,0.16299200057983398,-0.9459880590438843,0.20861999690532684
2.3,0.6696321368217468,0.2886781394481659,0.1529940962791443,0.16299200057983398,-0.9459880590438843,0.20861999690532684
2.32,0.595198929309845,0.37602725625038147,0.13808083534240723,0.05749250203371048,-0.965538501739502,0.22890250384807587
2.34,0.5078498721122742,0.5219641923904419,0.04434032365679741,0.09778299927711487,-0.9508680105209351,0.25992098450660706
2.36,0.47695809602737427,0.5677692294120789,0.01877473294734955,0.09778299927711487,-0.9508680105209351,0.25992098450660706
2.38,0.4929365813732147,0.6157047152519226,0.01877473294734955,0.14762000739574432,-0.9396439790725708,0.2848395109176636
2.4,0.5472634434700012,0.5880086421966553,0.02623136341571808,0.14225199818611145,-0.9276575446128845,0.3073180019855499
2.42,0.5781552195549011,0.6199656128883362,0.03368799388408661,0.16717049479484558,-0.9244855046272278,0.3280884921550751
2.44,0.6110442876815796,0.575225830078125,0.06031882017850876,0.1483519971370697,-0.9149695038795471,0.35325101017951965
2.46,0.6430012583732605,0.49639859795570374,0.10825430601835251,0.15811198949813843,-0.9105775356292725,0.3769494891166687
2.48,0.6280879974365234,0.44207170605659485,0.1412765234708786,0.16372400522232056,-0.9066734910011292,0.39573749899864197
2.5,0.5760247707366943,0.3515268862247467,0.20092958211898804,0.13688400387763977,-0.8995670080184937,0.4038199782371521
2.52,0.49187135696411133,0.2886781394481659,0.23594911396503448,0.1261174976825714,-0.9029829502105713,0.4113839864730835
2.54,0.4513925015926361,0.2545906901359558,0.24873191118240356,0.09168300032615662,-0.906185507774353,0.41675201058387756
2.56,0.3896089792251587,0.22795987129211426,0.2561885416507721,0.08091650158166885,-0.9130174517631531,0.4211440086364746
2.58,0.36191290616989136,0.2343512624502182,0.245536208152771,0.03794199973344803,-0.9054535627365112,0.4299280047416687
2.6,0.3448691964149475,0.22050324082374573,0.222101092338562,0.057004500180482864,-0.9002990126609802,0.4550905227661133
2.62,0.32889068126678467,0.20772044360637665,0.19773387908935547,0.031109999865293503,-0.8941989541053772,0.4668329954147339
2.64,0.30865126848220825,0.18854624032974243,0.17962491512298584,0.03257400169968605,-0.8824869990348816,0.4853770136833191
2.66,0.272433340549469,0.17789392173290253,0.17003782093524933,0.02668749913573265,-0.8778510093688965,0.49272751808166504
2.68,0.23301972448825836,0.1715025156736374,0.16577689349651337,0.022783499211072922,-0.8802909851074219,0.4902874827384949
2.7,0.17762760818004608,0.14274121820926666,0.14766792953014374,0.02400350011885166,-0.8790709972381592,0.5002915263175964
2.72,0.14780108630657196,0.12569749355316162,0.13275466859340668,0.024979500100016594,-0.8785830140113831,0.5007795095443726
2.74,0.1126483902335167,0.09600412845611572,0.11251524090766907,0.02693150006234646,-0.884926974773407,0.4983395040035248
2.76,0.05938674136996269,0.054460037499666214,0.08162347972393036,0.021319499239325523,-0.8817550539970398,0.5010234713554382
2.78,0.015712186694145203,0.017176883295178413,0.0454055592417717,0.014731500297784805,-0.8880990147590637,0.5056594610214233
2.8,-0.022503048181533813,-0.006258244160562754,0.02197043038904667,0.015707500278949738,-0.8893189430236816,0.4963874816894531
2.82,-0.057655736804008484,-0.021171506494283676,-0.005725627299398184,0.01107150036841631,-0.8815109729766846,0.5002915263175964
2.84,-0.08002562820911407,-0.041410934180021286,-0.03022598661482334,0.024735501036047935,-0.8768749833106995,0.49785152077674866
2.86,-0.10133028775453568,-0.06271559745073318,-0.04620448127388954,0.020831499248743057,-0.8729405403137207,0.5049275159835815
2.88,-0.11517832428216934,-0.08508548885583878,-0.05366111174225807,0.02571149915456772,-0.8756245374679565,0.4971195161342621
2.9,-0.13861344754695892,-0.11171631515026093,-0.07603100687265396,0.027938000857830048,-0.8822430372238159,0.48440098762512207
2.92,-0.15778763592243195,-0.13728190958499908,-0.09627043455839157,0.02745000086724758,-0.8846829533576965,0.48760348558425903
2.94,-0.17483137547969818,-0.15006470680236816,-0.11331415921449661,0.03257400169968605,-0.8900509476661682,0.47854501008987427
2.96,-0.20998406410217285,-0.1777607649564743,-0.14101022481918335,0.033305998891592026,-0.889074981212616,0.4719570279121399
2.98,-0.2259625494480133,-0.1894783228635788,-0.1580539494752884,0.04233400151133537,-0.8902950286865234,0.47000500559806824
3,-0.24939768016338348,-0.21397867798805237,-0.17616291344165802,0.041846003383398056,-0.889074981212616,0.46707698702812195
3.02,-0.25898477435112,-0.22676147520542145,-0.18681524693965912,0.0491660013794899,-0.8915150165557861,0.4572865068912506
3.04,-0.2685718834400177,-0.24487043917179108,-0.1995980441570282,0.05920049920678139,-0.89102703332901,0.4521624743938446
3.06,-0.27283281087875366,-0.27789267897605896,-0.2102503627538681,0.06944850087165833,-0.8995670080184937,0.44435450434684753
3.08,-0.2930722236633301,-0.2821536064147949,-0.22622886300086975,0.07750049978494644,-0.8981029987335205,0.44191452860832214
3.1,-0.3122464418411255,-0.2960016131401062,-0.23581595718860626,0.08387500047683716,-0.9017629623413086,0.42968401312828064
3.12,-0.3335510790348053,-0.31198012828826904,-0.23581595718860626,0.08387500047683716,-0.9017629623413086,0.42968401312828064
3.14,-0.3314206302165985,-0.34074142575263977,-0.23368549346923828,0.0894870012998581,-0.9022509455680847,0.41797199845314026
3.16,-0.3527252972126007,-0.31198012828826904,-0.24646829068660736,0.1063230037689209,-0.914481520652771,0.3908575177192688
3.18,-0.362312376499176,-0.3151758313179016,-0.24966399371623993,0.10876300185918808,-0.908381462097168,0.39305350184440613
3.2,-0.37083426117897034,-0.3087844252586365,-0.2507292330265045,0.10876300185918808,-0.908381462097168,0.39305350184440613
3.22,-0.3655080795288086,-0.3194367587566376,-0.2539249360561371,0.11855349689722061,-0.9147255420684814,0.3769494891166687
3.24,-0.31650736927986145,-0.43874284625053406,-0.24753352999687195,0.13416950404644012,-0.9113094806671143,0.37301501631736755
3.26,-0.3644428551197052,-0.2874797582626343,-0.25712060928344727,0.14469200372695923,-0.9215574860572815,0.34150850772857666
3.28,-0.3836170434951782,-0.29067546129226685,-0.2528596818447113,0.15201200544834137,-0.9152135252952576,0.3508110046386719
3.3,-0.3932041525840759,-0.2715012729167938,-0.25605538487434387,0.15664801001548767,-0.9176534414291382,0.3417524993419647
3.32,-0.3932041525840759,-0.2757622003555298,-0.2645772397518158,0.16790249943733215,-0.9218014478683472,0.31951799988746643
3.34,-0.366573303937912,-0.2949363887310028,-0.26990342140197754,0.18107850849628448,-0.9230215549468994,0.31537002325057983
3.36,-0.3537905216217041,-0.28854498267173767,-0.2635120153427124,0.18839849531650543,-0.9274135231971741,0.29951000213623047
3.38,-0.35805144906044006,-0.24913136661052704,-0.24433782696723938,0.20184899866580963,-0.9249734878540039,0.30780601501464844
3.4,-0.3644428551197052,-0.2544575333595276,-0.26670771837234497,0.20331300795078278,-0.9239975214004517,0.29362350702285767
3.42,-0.36976900696754456,-0.25978371500968933,-0.27842527627944946,0.20306900143623352,-0.9215574860572815,0.27556750178337097
3.44,-0.37189948558807373,-0.2533923089504242,-0.2752295732498169,0.21795301139354706,-0.9239975214004517,0.2618730068206787
3.46,-0.33887726068496704,-0.3375457227230072,-0.26670771837234497,0.23091550171375275,-0.9369600415229797,0.26751551032066345
3.48,-0.3516600430011749,-0.27043604850769043,-0.2656424939632416,0.2277435064315796,-0.9440360069274902,0.24113300442695618
3.5,-0.33994248509407043,-0.2533923089504242,-0.26031631231307983,0.23725950717926025,-0.9391559958457947,0.2491849958896637
3.52,-0.30692026019096375,-0.27043604850769043,-0.25605538487434387,0.24506749212741852,-0.9271695613861084,0.2445489913225174
3.54,-0.25046291947364807,-0.3386109471321106,-0.2422073632478714,0.24482350051403046,-0.9039894938468933,0.2252425104379654
3.56,-0.24300628900527954,-0.27043604850769043,-0.23368549346923828,0.25583401322364807,-0.8929789662361145,0.20740000903606415
3.58,-0.21850591897964478,-0.30984964966773987,-0.2102503627538681,0.26925399899482727,-0.8944429755210876,0.19934800267219543
3.6,-0.21850591897964478,-0.23421810567378998,-0.1889457106590271,0.2824605107307434,-0.8968830108642578,0.17198950052261353
3.62,-0.19720126688480377,-0.1777607649564743,-0.17616291344165802,0.30225497484207153,-0.9149695038795471,0.15954549610614777
3.64,-0.1631138026714325,-0.16178226470947266,-0.17190198600292206,0.311039000749588,-0.9152135252952576,0.14853499829769135
3.66,-0.14393961429595947,-0.14260807633399963,-0.15166255831718445,0.3083550035953522,-0.9220454692840576,0.13804300129413605
3.68,-0.12370018661022186,-0.08934641629457474,-0.10585752874612808,0.30567100644111633,-0.9174094796180725,0.14048300683498383
3.7,-0.09174319356679916,-0.027562905102968216,-0.06431344151496887,0.29270848631858826,-0.9142375588417053,0.13462699949741364
3.72,-0.057655736804008484,-0.0009320789249613881,-0.05153064802289009,0.2778244912624359,-0.899323046207428,0.1399950087070465
3.74,-0.006524552125483751,0.031024912372231483,-0.03555215150117874,0.274896502494812,-0.8966389894485474,0.1429229974746704
3.76,0.05086487531661987,0.05659050494432449,-0.03342168778181076,0.2790444791316986,-0.8959070444107056,0.14682699739933014
3.78,0.1115831583738327,0.08535179495811462,-0.01637795753777027,0.28660848736763,-0.8963950276374817,0.16198550164699554
3.8,0.15738818049430847,0.11184946447610855,-0.0003994623839389533,0.2953925132751465,-0.9002990126609802,0.1790654957294464
3.82,0.19254086911678314,0.1288931965827942,0.014513799920678139,0.29685649275779724,-0.9081375002861023,0.18077349662780762
3.84,0.21491076052188873,0.12356702983379364,0.02942706272006035,0.303475022315979,-0.9220454692840576,0.20349599421024323
3.86,0.19041040539741516,0.13208889961242676,0.02942706272006035,0.31543099880218506,-0.9305854439735413,0.21106000244617462
3.88,0.09453943371772766,0.04593817517161369,-0.0025299284607172012,0.30274301767349243,-0.9428160190582275,0.22841450572013855
3.9,-0.067242830991745,-0.07869409024715424,-0.03768261894583702,0.29441651701927185,-0.9576999545097351,0.2491849958896637
3.92,-0.14607007801532745,-0.09680305421352386,-0.03448691964149475,0.2870965003967285,-0.9257054924964905,0.24064499139785767
3.94,-0.1396786868572235,-0.09786828607320786,-0.07709623873233795,0.2726700007915497,-0.9191175103187561,0.22329050302505493
3.96,-0.10346075892448425,-0.11171631515026093,-0.11224892735481262,0.2814845144748688,-0.9264375567436218,0.20447200536727905
3.98,-0.1300915777683258,-0.11810771375894547,-0.12396649271249771,0.294904500246048,-0.942084014415741,0.20105600357055664
4,-0.1822880059480667,-0.09680305421352386,-0.12077079713344574,0.2924644947052002,-0.9235095381736755,0.18296949565410614
4.02,-0.1940055638551712,-0.06697652488946915,-0.13248835504055023,0.2953925132751465,-0.904233455657959,0.1680855005979538
4.04,-0.16524426639080048,-0.04673709720373154,-0.16124965250492096,0.30615898966789246,-0.9110655188560486,0.1605215072631836
4.06,-0.13222205638885498,-0.04673709720373154,-0.16977150738239288,0.3249469995498657,-0.9320799708366394,0.15707498788833618
4.08,-0.12689588963985443,-0.03928046673536301,-0.15485824644565582,0.3374214768409729,-0.9418400526046753,0.1605215072631836
4.1,-0.151396244764328,-0.050998032093048096,-0.14207544922828674,0.34400951862335205,-0.9384239912033081,0.1651574969291687
4.12,-0.18015754222869873,-0.0829550251364708,-0.12077079713344574,0.3415694832801819,-0.9178975224494934,0.16588950157165527
4.14,-0.22915825247764587,-0.09999874979257584,-0.08561810106039047,0.33644551038742065,-0.8985909819602966,0.16149750351905823
4.16,-0.4485962688922882,-0.10106398165225983,-0.0025299284607172012,0.3501094877719879,-0.8548845052719116,0.17784550786018372
4.18,-0.9725577235221863,-0.13089050352573395,0.11145000159740448,0.32714298367500305,-0.8570804595947266,0.1546349972486496
4.2,-1.9352620840072632,-0.4770912528038025,0.23701435327529907,0.3281494975090027,-0.8944429755210876,0.14804700016975403
4.22,-2.415682077407837,-0.871094286441803,0.13701559603214264,0.32372698187828064,-0.9889929890632629,0.13413900136947632
4.24,-2.566812038421631,-1.1660306453704834,-0.08348763734102249,0.3205550014972687,-1.028063416481018,0.036416999995708466
4.26,-1.117429494857788,-1.769884705543518,-0.2219679355621338,0.3193349838256836,-0.9198495149612427,0.15146300196647644
4.28,-0.1716356724500656,-0.21930484473705292,-0.06324820965528488,0.24680599570274353,-0.7706130146980286,-0.25281450152397156
4.3,0.14034445583820343,0.44100648164749146,0.04753602296113968,0.3071350157260895,-0.8978589773178101,-0.3014010190963745
4.32,0.4929365813732147,0.31211328506469727,0.07310161739587784,0.34059348702430725,-0.9115535020828247,-0.08716899901628494
4.34,0.6355446577072144,0.3078523576259613,0.03688369318842888,0.35941198468208313,-0.9293654561042786,-0.052002497017383575
4.36,0.7676335573196411,0.24074266850948334,0.03581846132874489,0.35941198468208313,-0.9293654561042786,-0.052002497017383575
4.38,0.8049166798591614,0.15339355170726776,0.007057168986648321,0.3537695109844208,-0.9323239326477051,-0.040534500032663345
4.4,0.7026543617248535,-0.015845341607928276,-0.10905323177576065,0.3308334946632385,-0.9523320198059082,-0.017323998734354973
4.42,0.5909380316734314,-0.08934641629457474,-0.16338011622428894,0.2819724977016449,-0.9130174517631531,-0.013420000672340393
4.44,0.4716319143772125,-0.07017222791910172,-0.2006632685661316,0.2604700028896332,-0.9276575446128845,-0.007807999849319458
4.46,0.4023917615413666,-0.06697652488946915,-0.2006632685661316,0.31543099880218506,-0.9391559958457947,0.00564250024035573
4.48,0.3448691964149475,-0.047802332788705826,-0.21770699322223663,0.34400951862335205,-0.9411080479621887,0.024217000231146812
4.5,0.24899822473526,-0.045671865344047546,-0.21770699322223663,0.3396174907684326,-0.9218014478683472,0.03958899900317192
4.52,0.05512581020593643,-0.24593567848205566,-0.27096864581108093,0.37844401597976685,-0.9596824645996094,0.04007699713110924
4.54,-0.16417904198169708,-0.42809051275253296,-0.4082505702972412,0.4424634873867035,-0.9276575446128845,0.13511499762535095
4.56,-0.22809302806854248,-0.20332635939121246,-0.3721657991409302,0.3156749904155731,-0.8561044931411743,0.07844600081443787
4.58,-0.21104928851127625,-0.12236864119768143,-0.2848166823387146,0.3892104923725128,-0.8617164492607117,0.03617300093173981
4.6,-0.3335510790348053,-0.11810771375894547,-0.28162097930908203,0.3928705155849457,-0.8883429765701294,0.028609002009034157
4.62,-1.0375369787216187,0.047003407031297684,-0.48068639636039734,0.3093309998512268,-0.8465579748153687,-0.021959999576210976
4.64,-1.6104991436004639,-0.037150003015995026,-0.5477960705757141,0.31835898756980896,-0.7991914749145508,0.06572750210762024
4.66,-1.5082367658615112,-0.3460675776004791,-0.27949050068855286,0.3601439893245697,-0.8358220458030701,-0.028303999453783035
4.68,-1.4113006591796875,-0.8306154608726501,-0.08668334037065506,0.43267303705215454,-0.9909449815750122,-0.09061549603939056
4.7,-1.0705591440200806,-0.7762885689735413,0.09760197252035141,0.46616196632385254,-1.0361154079437256,-0.08939550071954727
4.72,-0.6103785037994385,-0.22676147520542145,-0.1452711522579193,0.39823850989341736,-0.9591944813728333,-0.21737349033355713
4.74,-0.033155377954244614,-0.08721595257520676,-0.03661738336086273,0.3853065073490143,-0.8866350054740906,-0.15606850385665894
4.76,0.4343487620353699,0.050199106335639954,0.08481918275356293,0.4966925084590912,-0.9271695613861084,-0.1971215009689331
4.78,0.677088737487793,0.18322007358074188,0.07416684925556183,0.46542999148368835,-0.8514685034751892,-0.18562299013137817
4.8,0.7175676226615906,0.12356702983379364,0.01877473294734955,0.43267303705215454,-0.8548845052719116,-0.16460849344730377
4.82,0.5802856683731079,0.023568280041217804,-0.02276935614645481,0.3718560039997101,-0.8580564856529236,-0.11626599729061127
4.84,0.43860968947410583,0.1065233051776886,0.008122402243316174,0.3840865194797516,-0.8607404828071594,-0.12309800833463669
4.86,0.3885437548160553,0.040612008422613144,0.02197043038904667,0.3840865194797516,-0.8607404828071594,-0.12309800833463669
4.88,0.3171731233596802,0.13315412402153015,0.05925358831882477,0.3887225091457367,-0.8988350629806519,-0.066429004073143
4.9,0.23088926076889038,0.1278279572725296,0.06031882017850876,0.3887225091457367,-0.8988350629806519,-0.066429004073143
4.92,0.03275591507554054,0.10545806586742401,-0.01637795753777027,0.3879905045032501,-0.8949310183525085,-0.05078250169754028
4.94,-0.04913387447595596,0.07150376588106155,-0.01957365684211254,0.39238250255584717,-0.8702564835548401,-0.03785049915313721
4.96,-0.033155377954244614,0.0874822586774826,0.008122402243316174,0.41339701414108276,-0.8773630261421204,-0.05932249873876572
4.98,0.030625449493527412,0.13102366030216217,0.04753602296113968,0.41339701414108276,-0.8773630261421204,-0.05932249873876572
5,0.04340824484825134,0.1374150663614273,0.05925358831882477,0.41461700201034546,-0.9005430340766907,-0.05737049877643585
5.02,0.05619104206562042,0.08641702681779861,0.06351451575756073,0.4155930280685425,-0.908381462097168,-0.0739930048584938
5.04,0.05512581020593643,0.04274247586727142,0.06990591436624527,0.4224250018596649,-0.9198495149612427,-0.07667700201272964
5.06,0.06045197322964668,0.018242115154862404,0.0773625448346138,0.4202290177345276,-0.9122855067253113,-0.0827770009636879
5.08,0.07430000603199005,0.025698747485876083,0.09121058136224747,0.42681699991226196,-0.9142375588417053,-0.08497299998998642
5.1,0.05299534276127815,0.019307348877191544,0.11464570462703705,0.4062905013561249,-0.8817550539970398,-0.06545300036668777
5.12,0.09240896254777908,0.016111649572849274,0.12103710323572159,0.4062905013561249,-0.8817550539970398,-0.06545300036668777
5.14,0.10625699162483215,-0.015845341607928276,0.05712312087416649,0.38311049342155457,-0.8680605292320251,-0.05688249692320824
5.16,0.04660394415259361,-0.023301972076296806,0.02303566411137581,0.38088399171829224,-0.9047214388847351,-0.05102650076150894
5.18,0.13501828908920288,0.007589785382151604,0.0454055592417717,0.36966001987457275,-0.8744044899940491,-0.03589850291609764
5.2,0.2298240214586258,0.022503048181533813,0.07416684925556183,0.3786880075931549,-0.9049655199050903,-0.05273450165987015
5.22,0.1754971444606781,0.07576470077037811,0.06244928762316704,0.3786880075931549,-0.9049655199050903,-0.05273450165987015
5.24,0.1009308323264122,0.0874822586774826,0.05073172226548195,0.3596560060977936,-0.8927350044250488,-0.03760650008916855
5.26,0.06684337556362152,0.08961272984743118,0.04220985993742943,0.3689279854297638,-0.8968830108642578,-0.04907450079917908
5.28,-0.07150376588106155,0.05659050494432449,-0.0025299284607172012,0.3642919957637787,-0.8856589794158936,-0.030500002205371857
5.3,-0.13648298382759094,-0.030758604407310486,-0.015312724746763706,0.390918493270874,-0.9244855046272278,-0.024887999519705772
5.32,-0.033155377954244614,-0.03608476743102074,0.04434032365679741,0.40165451169013977,-0.8883429765701294,-0.03955850005149841
5.34,0.06258244067430496,-0.023301972076296806,0.07203638553619385,0.4114450216293335,-0.9069175124168396,-0.029767999425530434
5.36,0.2085193693637848,-0.028628136962652206,0.10612384229898453,0.4031184911727905,-0.9132614731788635,-0.03882649913430214
5.38,0.24899822473526,-0.013714875094592571,0.12210233509540558,0.38555049896240234,-0.902006983757019,-0.03467850014567375
5.4,0.28628137707710266,0.007589785382151604,0.13595037162303925,0.39018648862838745,-0.9039894938468933,-0.03025600127875805
5.42,0.26817241311073303,0.044872939586639404,0.12316756695508957,0.39018648862838745,-0.9039894938468933,-0.03025600127875805
5.44,0.20532366633415222,0.053394805639982224,0.11464570462703705,0.374783992767334,-0.8990790247917175,-0.04541449993848801
5.46,0.17762760818004608,0.04913387447595596,0.08908011019229889,0.37673598527908325,-0.9059415459632874,-0.02757200039923191
5.48,0.14673584699630737,0.058720968663692474,0.08694964647293091,0.3596560060977936,-0.903471052646637,-0.024644000455737114
5.5,0.1754971444606781,0.09387365728616714,0.10612384229898453,0.35819199681282043,-0.9010310173034668,0.0017385000828653574
5.52,0.20958459377288818,0.12463226169347763,0.1423417627811432,0.35819199681282043,-0.9010310173034668,0.0017385000828653574
5.54,0.25325915217399597,0.18428531289100647,0.1721682846546173,0.35230550169944763,-0.9230215549468994,0.00222649984061718
5.56,0.18082331120967865,0.20878566801548004,0.19027724862098694,0.35230550169944763,-0.9230215549468994,0.00222649984061718
5.58,0.18188853561878204,0.2023942768573761,0.16897258162498474,0.34596148133277893,-0.902006983757019,0.027632998302578926
5.6,0.19893226027488708,0.17895914614200592,0.12423279881477356,0.3408375084400177,-0.9056975245475769,0.03568499907851219
5.62,0.25432437658309937,0.13634982705116272,0.10825430601835251,0.3315654993057251,-0.8854149580001831,0.040320999920368195
5.64,0.28841185569763184,0.1608501821756363,0.10718907415866852,0.34571748971939087,-0.9024949669837952,0.044224999845027924
5.66,0.31823837757110596,0.14700216054916382,0.09227581322193146,0.32592299580574036,-0.9115535020828247,0.052551496773958206
5.68,0.3129121959209442,0.1491326242685318,0.09121058136224747,0.3369334936141968,-0.9244855046272278,0.04446899890899658
5.7,0.2937380075454712,0.1374150663614273,0.098667211830616,0.31909099221229553,-0.9372040629386902,0.04715299978852272
5.72,0.2628462612628937,0.17682868242263794,0.12636326253414154,0.3207990229129791,-0.9469640254974365,0.061091501265764236
5.74,0.2596505582332611,0.17363297939300537,0.14553746581077576,0.30371901392936707,-0.9310735464096069,0.07207150012254715
5.76,0.2287587970495224,0.1693720519542694,0.16790735721588135,0.3379094898700714,-0.91862952709198,0.06523949652910233
5.78,0.20319320261478424,0.12037133425474167,0.14979839324951172,0.33010151982307434,-0.9467200040817261,0.09259799867868423
5.8,0.2170412242412567,0.036351077258586884,0.14553746581077576,0.30664700269699097,-0.9330560564994812,0.10016199946403503
5.82,0.26497671008110046,-0.26830556988716125,0.11464570462703705,0.28343650698661804,-0.9857904314994812,0.14365500211715698
5.84,0.1659100502729416,0.09387365728616714,0.19879911839962006,0.30737900733947754,-0.9047214388847351,0.03568499907851219
5.86,0.1765623688697815,0.07576470077037811,0.22103585302829742,0.3232389986515045,-0.9193615317344666,0.10604850202798843
5.88,0.22662831842899323,-0.047802332788705826,0.21264714002609253,0.28978049755096436,-0.9122855067253113,0.13609100878238678
5.9,0.3022598624229431,-0.026497671380639076,0.2147776037454605,0.21871550381183624,-0.9335440397262573,0.1289845108985901
5.92,0.2500634491443634,0.18428531289100647,0.2169080674648285,0.3144550025463104,-0.9266815185546875,0.12849649786949158
5.94,0.2798899710178375,0.1821548491716385,0.1732335239648819,0.2946605086326599,-0.9283894896507263,0.14023900032043457
5.96,0.2820204496383667,0.21730753779411316,0.13701559603214264,0.28172850608825684,-0.9276575446128845,0.1499989926815033
5.98,0.2713681161403656,0.2034595012664795,0.11571093648672104,0.28392449021339417,-0.9494039416313171,0.15905749797821045
6,0.24580252170562744,0.21943800151348114,0.10186290740966797,0.26925399899482727,-0.9511120319366455,0.1593015044927597
6.02,0.21491076052188873,0.2013290375471115,0.0773625448346138,0.26754599809646606,-0.9484279751777649,0.16271750628948212
6.04,0.1968017965555191,0.1800243854522705,0.06351451575756073,0.27169400453567505,-0.9476959705352783,0.17979750037193298
6.06,0.18401899933815002,0.015046416781842709,-0.05792204663157463,0.27343249320983887,-0.9523320198059082,0.1802854984998703
6.08,0.23195448517799377,0.08961272984743118,0.0347532257437706,0.18522650003433228,-0.9733465313911438,0.2560169994831085
6.1,0.17123620212078094,0.14593692123889923,0.0454055592417717,0.27709251642227173,-0.9440360069274902,0.1890999972820282
6.12,0.1765623688697815,0.1395455300807953,0.05818835273385048,0.27538448572158813,-0.9491599798202515,0.19934800267219543
6.14,0.16697527468204498,0.13315412402153015,0.05712312087416649,0.28221648931503296,-0.9425719976425171,0.2088640034198761
6.16,0.1552577167749405,0.13634982705116272,0.05286218971014023,0.2802644968032837,-0.9415960311889648,0.20398400723934174
6.18,0.12756165862083435,0.12569749355316162,0.0454055592417717,0.27806851267814636,-0.9345200061798096,0.2071560174226761
6.2,0.1009308323264122,0.09706936031579971,0.03262276202440262,0.2709619998931885,-0.9381800293922424,0.20959600806236267
6.22,0.07003907114267349,0.08109086751937866,0.01770949922502041,0.2773365080356598,-0.9374480247497559,0.21548250317573547
6.24,0.03914731368422508,0.05659050494432449,0.0017310036346316338,0.26949799060821533,-0.9328120350837708,0.22621850669384003
6.26,0.0007989247678779066,0.027829213067889214,-0.015312724746763706,0.2668139934539795,-0.9369600415229797,0.2332945019006729
6.28,-0.06404713541269302,-0.010519175790250301,-0.03661738336086273,0.27218201756477356,-0.9352520108222961,0.23183050751686096
6.3,-0.10452599078416824,-0.045671865344047546,-0.05792204663157463,0.26242199540138245,-0.9328120350837708,0.23085449635982513
6.32,-0.13541774451732635,-0.0723026916384697,-0.07390054315328598,0.26461800932884216,-0.9362279772758484,0.23061050474643707
6.34,-0.15885287523269653,-0.09041165560483932,-0.08455286920070648,0.2651059925556183,-0.9367160201072693,0.23207449913024902
6.36,-0.18654893338680267,-0.12343387305736542,-0.09200949966907501,0.26949799060821533,-0.9357399940490723,0.219386488199234
6.38,-0.2259625494480133,-0.1553908735513687,-0.11224892735481262,0.2736765146255493,-0.9381800293922424,0.21792249381542206
6.4,-0.2557890713214874,-0.1788259893655777,-0.12929265201091766,0.2768484950065613,-0.9413520693778992,0.20740000903606415
6.42,-0.28668084740638733,-0.20545682311058044,-0.14953207969665527,0.2814845144748688,-0.9389119744300842,0.19519999623298645
6.44,-0.3133116662502289,-0.232087641954422,-0.1665758192539215,0.2873404920101166,-0.9423280358314514,0.18223750591278076
6.46,-0.33994248509407043,-0.251261830329895,-0.18468476831912994,0.2958804965019226,-0.9413520693778992,0.17174550890922546
6.48,-0.366573303937912,-0.2725664973258972,-0.19533710181713104,0.30030301213264465,-0.9425719976425171,0.16198550164699554
6.5,-0.3995955288410187,-0.2874797582626343,-0.20811989903450012,0.3007909953594208,-0.9401319622993469,0.16125349700450897
6.52,-0.4209001958370209,-0.2981320917606354,-0.21770699322223663,0.31494298577308655,-0.9386680126190186,0.14438700675964355
6.54,-0.4390091598033905,-0.3066539466381073,-0.22303315997123718,0.31372299790382385,-0.9330560564994812,0.13560301065444946
6.56,-0.45711812376976013,-0.31198012828826904,-0.22835932672023773,0.3142109811306,-0.926925539970398,0.13020449876785278
6.58,-0.4709661602973938,-0.32050198316574097,-0.2326202541589737,0.31494298577308655,-0.9237534999847412,0.11629649996757507
6.6,-0.47842279076576233,-0.3258281648159027,-0.2326202541589737,0.3234829902648926,-0.926925539970398,0.10458449274301529
6.62,-0.4805532395839691,-0.32369768619537354,-0.23368549346923828,0.331077516078949,-0.9242414832115173,0.0869860053062439
6.64,-0.4816184937953949,-0.3290238380432129,-0.2326202541589737,0.3366895020008087,-0.9200934767723083,0.06719149649143219
6.66,-0.4826837182044983,-0.32369768619537354,-0.23581595718860626,0.3476695120334625,-0.91862952709198,0.05279549956321716
6.68,-0.47629231214523315,-0.3258281648159027,-0.23368549346923828,0.35279351472854614,-0.9154574871063232,0.03568499907851219
6.7,-0.47735753655433655,-0.3173062801361084,-0.22835932672023773,0.35575199127197266,-0.9122855067253113,0.023729000240564346
6.72,-0.47522708773612976,-0.3151758313179016,-0.22409839928150177,0.3606320023536682,-0.9110655188560486,0.014670499600470066
6.74,-0.47522708773612976,-0.30345824360847473,-0.2102503627538681,0.36575600504875183,-0.9110655188560486,-0.007075999863445759
6.76,-0.4624442756175995,-0.29067546129226685,-0.19746756553649902,0.3689279854297638,-0.9047214388847351,-0.01439599972218275
6.78,-0.450726717710495,-0.2832188308238983,-0.18468476831912994,0.38311049342155457,-0.9054535627365112,-0.038094501942396164
6.8,-0.4283568263053894,-0.25871846079826355,-0.17616291344165802,0.3850625157356262,-0.8998110294342041,-0.04761049896478653
6.82,-0.408117413520813,-0.2416747361421585,-0.16124965250492096,0.38481849431991577,-0.8915150165557861,-0.0630130022764206
6.84,-0.3772256374359131,-0.21610915660858154,-0.14314068853855133,0.38088399171829224,-0.8976149559020996,-0.06984499841928482
6.86,-0.3452686667442322,-0.2011958807706833,-0.13035789132118225,0.38945451378822327,-0.8878549933433533,-0.08546099811792374
6.88,-0.3133116662502289,-0.1777607649564743,-0.11331415921449661,0.38774651288986206,-0.8863910436630249,-0.09476349502801895
6.9,-0.28668084740638733,-0.16604319214820862,-0.09627043455839157,0.38774651288986206,-0.8863910436630249,-0.09476349502801895
6.92,-0.25472384691238403,-0.14793424308300018,-0.08348763734102249,0.38969850540161133,-0.8798030018806458,-0.10208350419998169
6.94,-0.23022349178791046,-0.12876003980636597,-0.06857437640428543,0.38603848218917847,-0.8746484518051147,-0.11699799448251724
6.96,-0.20146219432353973,-0.11917294561862946,-0.0611177459359169,0.3857944905757904,-0.8744044899940491,-0.11992600560188293
6.98,-0.172700896859169,-0.10106398165225983,-0.0504654161632061,0.3879905045032501,-0.8746484518051147,-0.12041400372982025
7,-0.15565717220306396,-0.08828118443489075,-0.04407401755452156,0.3916504979133606,-0.8705004453659058,-0.13456600904464722
7.02,-0.13222205638885498,-0.07443315535783768,-0.039813082665205,0.3928705155849457,-0.8712324500083923,-0.13481000065803528
7.04,-0.11091738939285278,-0.058454662561416626,-0.03235645219683647,0.3921385109424591,-0.8734285235404968,-0.13603000342845917
7.06,-0.0981345921754837,-0.04673709720373154,-0.02703028731048107,0.3911624848842621,-0.8673285245895386,-0.14484450221061707
7.08,-0.08215609937906265,-0.037150003015995026,-0.02276935614645481,0.39238250255584717,-0.8700124621391296,-0.14090999960899353
7.1,-0.067242830991745,-0.024367205798625946,-0.01744319126009941,0.39238250255584717,-0.8748924732208252,-0.15192049741744995
7.12,-0.047003407031297684,-0.009453942999243736,-0.008921326138079166,0.39482250809669495,-0.8712324500083923,-0.15314050018787384
7.14,-0.022503048181533813,0.0033288532868027687,-0.0003994623839389533,0.3979944884777069,-0.8771189451217651,-0.1487485021352768
7.16,0.0018641578499227762,0.017176883295178413,0.0038614696823060513,0.3975065052509308,-0.8741604685783386,-0.152164489030838
7.18,0.014646953903138638,0.025698747485876083,0.009187635034322739,0.3979944884777069,-0.8702564835548401,-0.15192049741744995
7.2,0.05086487531661987,0.03954677656292915,0.012383334338665009,0.3975065052509308,-0.8724524974822998,-0.14655250310897827
7.22,0.06577813625335693,0.053394805639982224,0.02197043038904667,0.3904304802417755,-0.8705004453659058,-0.14066599309444427
7.24,0.09347419440746307,0.05659050494432449,0.02729659713804722,0.3975065052509308,-0.8712324500083923,-0.13895800709724426
7.26,0.11051792651414871,0.07043853402137756,0.04007939249277115,0.3962865173816681,-0.8712324500083923,-0.13676200807094574
7.28,0.12649641931056976,0.08322133123874664,0.05286218971014023,0.3940905034542084,-0.8731845021247864,-0.13456600904464722
7.3,0.14780108630657196,0.09387365728616714,0.05925358831882477,0.3945784866809845,-0.8788270354270935,-0.13261400163173676
7.32,0.16058388352394104,0.0991998240351677,0.06457975506782532,0.3999464809894562,-0.8768749833106995,-0.1294419914484024
7.34,0.17230144143104553,0.10332760214805603,0.07310161739587784,0.39360249042510986,-0.8788270354270935,-0.12797801196575165
7.36,0.18934516608715057,0.10971900075674057,0.07949301600456238,0.3845745027065277,-0.8707444667816162,-0.11504600197076797
7.38,0.20425842702388763,0.12463226169347763,0.08694964647293091,0.39067450165748596,-0.8788270354270935,-0.11675400286912918
7.4,0.22236739099025726,0.13315412402153015,0.09653674066066742,0.3921385109424591,-0.8856589794158936,-0.11184350401163101
7.42,0.23728065192699432,0.14487169682979584,0.10612384229898453,0.38896650075912476,-0.8837069869041443,-0.10574350506067276
7.44,0.24793298542499542,0.15552401542663574,0.11358047276735306,0.39018648862838745,-0.8883429765701294,-0.10110750049352646
7.46,0.26604193449020386,0.16724158823490143,0.12423279881477356,0.39360249042510986,-0.893222987651825,-0.09134750068187714
7.48,0.2798899710178375,0.17895914614200592,0.13381989300251007,0.3882344961166382,-0.895175039768219,-0.0903714969754219
7.5,0.29693371057510376,0.18535055220127106,0.14447222650051117,0.38088399171829224,-0.8929789662361145,-0.0769209936261177
7.52,0.3171731233596802,0.20026381313800812,0.15725502371788025,0.38015198707580566,-0.8934669494628906,-0.07204099744558334
7.54,0.3342168629169464,0.21517707407474518,0.17110306024551392,0.3745400011539459,-0.8941989541053772,-0.061549004167318344
7.56,0.35232582688331604,0.22689463198184967,0.183885857462883,0.37088000774383545,-0.8990790247917175,-0.05615050345659256
7.58,0.3576519787311554,0.23754696547985077,0.19879911839962006,0.35989999771118164,-0.9091135263442993,-0.031964000314474106
7.6,0.3651086091995239,0.25032976269721985,0.21371237933635712,0.35989999771118164,-0.9091135263442993,-0.031964000314474106
7.62,0.3576519787311554,0.26098209619522095,0.2147776037454605,0.3550199866294861,-0.9205814599990845,-0.0026535000652074814
7.64,0.3576519787311554,0.26204732060432434,0.22423155605793,0.3550199866294861,-0.9205814599990845,-0.0026535000652074814
7.66,0.34913012385368347,0.26204732060432434,0.2252967804670334,0.3550199866294861,-0.9220454692840576,0.01223050057888031
7.68,0.3469996452331543,0.2673735022544861,0.21997061371803284,0.35206151008605957,-0.9281455278396606,0.031537000089883804
7.7,0.3438039720058441,0.2673735022544861,0.20838621258735657,0.35206151008605957,-0.9281455278396606,0.031537000089883804
7.72,0.3342168629169464,0.26204732060432434,0.1945381760597229,0.34596148133277893,-0.9325680732727051,0.04251699894666672
7.74,0.32143405079841614,0.2588516175746918,0.17536398768424988,0.3298574984073639,-0.9325680732727051,0.06670349836349487
7.76,0.30865126848220825,0.252460241317749,0.17536398768424988,0.3198229968547821,-0.9320799708366394,0.07698199898004532
7.78,0.2937380075454712,0.2450035959482193,0.1721682846546173,0.32470300793647766,-0.9305854439735413,0.07966600358486176
7.8,0.272433340549469,0.23648172616958618,0.15405932068824768,0.32006698846817017,-0.9386680126190186,0.09332999587059021
7.82,0.25645485520362854,0.21624229848384857,0.13595037162303925,0.3181149959564209,-0.9401319622993469,0.09820999950170517
7.84,0.22130216658115387,0.17895914614200592,0.11464570462703705,0.3064029812812805,-0.9394000172615051,0.10751250386238098
7.86,0.19467133283615112,0.15126308798789978,0.10186290740966797,0.31030699610710144,-0.942084014415741,0.11946850270032883
7.88,0.17869283258914948,0.11930610239505768,0.09653674066066742,0.30567100644111633,-0.9372040629386902,0.12117649614810944
7.9,0.13075734674930573,0.10545806586742401,0.07949301600456238,0.29734447598457336,-0.9408639669418335,0.12264050543308258
7.92,0.09986559301614761,0.08322133123874664,0.06884068250656128,0.3017669916152954,-0.9425719976425171,0.12361650168895721
7.94,0.07216953486204147,0.057655736804008484,0.05073172226548195,0.30274301767349243,-0.9403759837150574,0.13511499762535095
7.96,0.04553871229290962,0.037416309118270874,0.03262276202440262,0.30103498697280884,-0.9498920440673828,0.133651003241539
7.98,0.0061250897124409676,0.013981183059513569,0.013448567129671574,0.30103498697280884,-0.9498920440673828,0.133651003241539
8,-0.017176883295178413,-0.005193010903894901,-0.0003994623839389533,0.29783251881599426,-0.9450119733810425,0.13609100878238678
8.02,-0.040612008422613144,-0.022236740216612816,-0.015312724746763706,0.2941724956035614,-0.9423280358314514,0.14023900032043457
8.04,-0.0768299326300621,-0.043541401624679565,-0.03661738336086273,0.29441651701927185,-0.9413520693778992,0.14219100773334503
8.06,-0.09600412845611572,-0.058454662561416626,-0.0504654161632061,0.294904500246048,-0.942084014415741,0.13511499762535095
8.08,-0.1311568170785904,-0.08082455396652222,-0.07390054315328598,0.29856452345848083,-0.9413520693778992,0.13121099770069122
8.1,-0.15459194779396057,-0.08615072071552277,-0.08348763734102249,0.302498996257782,-0.9425719976425171,0.1265445053577423
8.12,-0.1833532303571701,-0.11065108329057693,-0.1037270650267601,0.30323100090026855,-0.940619945526123,0.12361650168895721
8.14,-0.20252743363380432,-0.12449911236763,-0.11544463038444519,0.30737900733947754,-0.9374480247497559,0.1155645027756691
8.16,-0.22383208572864532,-0.1351514458656311,-0.12716218829154968,0.3117710053920746,-0.9350079894065857,0.1080005019903183
8.18,-0.23448441922664642,-0.14367330074310303,-0.13248835504055023,0.3076229989528656,-0.9362279772758484,0.10678049176931381
8.2,-0.2472672164440155,-0.15006470680236816,-0.14314068853855133,0.3142109811306,-0.9335440397262573,0.0991860032081604
8.22,-0.26431095600128174,-0.15432563424110413,-0.15166255831718445,0.3176270127296448,-0.9394000172615051,0.08332599699497223
8.24,-0.27283281087875366,-0.16391272842884064,-0.1559234857559204,0.32299500703811646,-0.9369600415229797,0.07795799523591995
8.26,-0.28241991996765137,-0.1681736707687378,-0.16444534063339233,0.32128700613975525,-0.9315919876098633,0.07207150012254715
8.28,-0.2898765504360199,-0.1681736707687378,-0.17083674669265747,0.32665500044822693,-0.9333000183105469,0.06645949929952621
8.3,-0.2973331809043884,-0.17136935889720917,-0.17616291344165802,0.3315654993057251,-0.9310735464096069,0.05987149849534035
8.32,-0.2994636297225952,-0.16497796773910522,-0.1772281378507614,0.33010151982307434,-0.9276575446128845,0.045200999826192856
8.34,-0.30478981137275696,-0.1671084314584732,-0.18148908019065857,0.3337615132331848,-0.9266815185546875,0.037880998104810715
8.36,-0.30692026019096375,-0.15965180099010468,-0.18575000762939453,0.3379094898700714,-0.9220454692840576,0.03373299911618233
8.38,-0.3122464418411255,-0.16178226470947266,-0.1878804713487625,0.3408375084400177,-0.9166774749755859,0.02592500112950802
8.4,-0.3090507388114929,-0.16497796773910522,-0.19107617437839508,0.3508414924144745,-0.9161894917488098,0.015646498650312424
8.42,-0.3111811876296997,-0.17030413448810577,-0.19107617437839508,0.3564840257167816,-0.9149695038795471,0.013206499628722668
8.44,-0.30692026019096375,-0.17030413448810577,-0.18361954391002655,0.3625839948654175,-0.9135055541992188,0.000030499999411404133
8.46,-0.2973331809043884,-0.16071702539920807,-0.18468476831912994,0.37258797883987427,-0.9200934767723083,-0.0019214999629184604
8.48,-0.2930722236633301,-0.17349982261657715,-0.178293377161026,0.3677079975605011,-0.9047214388847351,-0.013175999745726585
8.5,-0.28668084740638733,-0.16178226470947266,-0.17083674669265747,0.3752720057964325,-0.9078934788703918,-0.02513200044631958
8.52,-0.27389803528785706,-0.16497796773910522,-0.16124965250492096,0.3711239993572235,-0.9081375002861023,-0.031964000314474106
8.54,-0.26218047738075256,-0.16284750401973724,-0.15272778272628784,0.3811279833316803,-0.9032270312309265,-0.04029050096869469
8.56,-0.25152814388275146,-0.1553908735513687,-0.1474016159772873,0.3857944905757904,-0.8966389894485474,-0.046878501772880554
8.58,-0.24194104969501495,-0.1468690037727356,-0.13994498550891876,0.3892104923725128,-0.893222987651825,-0.060328997671604156
8.6,-0.22383208572864532,-0.13302096724510193,-0.12396649271249771,0.38213449716567993,-0.8907830119132996,-0.06130500137805939
8.62,-0.21104928851127625,-0.11810771375894547,-0.11650986224412918,0.3933584988117218,-0.8898069858551025,-0.06886900216341019
8.64,-0.1950708031654358,-0.10106398165225983,-0.1037270650267601,0.3945784866809845,-0.8841949701309204,-0.08546099811792374
8.66,-0.18015754222869873,-0.09573781490325928,-0.08987903594970703,0.3962865173816681,-0.8846829533576965,-0.08890750259160995
8.68,-0.15991811454296112,-0.07975932210683823,-0.07603100687265396,0.3999464809894562,-0.8800469636917114,-0.08890750259160995
8.7,-0.13754820823669434,-0.061650361865758896,-0.05898727849125862,0.3962865173816681,-0.882731020450592,-0.10232749581336975
8.72,-0.12689588963985443,-0.05312849581241608,-0.05153064802289009,0.39482250809669495,-0.8805349469184875,-0.10452349483966827
8.74,-0.11198262125253677,-0.050998032093048096,-0.04300878196954727,0.39897048473358154,-0.8837069869041443,-0.10476750135421753
8.76,-0.09600412845611572,-0.037150003015995026,-0.03342168778181076,0.4104689955711365,-0.8832190036773682,-0.1054994985461235
8.78,-0.08002562820911407,-0.023301972076296806,-0.02170412242412567,0.3984825015068054,-0.8798030018806458,-0.10867150127887726
8.8,-0.06298190355300903,-0.016910573467612267,-0.014247491955757141,0.40116649866104126,-0.8795589804649353,-0.11184350401163101
8.82,-0.048068638890981674,-0.006258244160562754,-0.0014646954368799925,0.40238651633262634,-0.8761125206947327,-0.11184350401163101
8.84,-0.029959678649902344,-0.0030625448562204838,0.005991935729980469,0.40189850330352783,-0.8800469636917114,-0.11281950771808624
8.86,-0.012915950268507004,0.0033288532868027687,0.015579032711684704,0.4009225070476532,-0.8783390522003174,-0.11184350401163101
8.88,-0.0011983871227130294,0.007589785382151604,0.02303566411137581,0.4084864854812622,-0.880778968334198,-0.10940349847078323
8.9,0.010386021807789803,0.009720250964164734,0.02516612969338894,0.4031184911727905,-0.8798030018806458,-0.10623149573802948
8.92,0.03595161437988281,0.016111649572849274,0.03581846132874489,0.39897048473358154,-0.8812669515609741,-0.11111149191856384
8.94,0.04660394415259361,0.020372580736875534,0.04007939249277115,0.40116649866104126,-0.8776070475578308,-0.10623149573802948
8.96,0.05619104206562042,0.025698747485876083,0.05392742156982422,0.40287449955940247,-0.8773630261421204,-0.10720749944448471
8.98,0.07216953486204147,0.029959678649902344,0.05712312087416649,0.40165451169013977,-0.8802909851074219,-0.10891549289226532
9,0.08282186836004257,0.03528584539890289,0.06244928762316704,0.3975065052509308,-0.8817550539970398,-0.10281550139188766
9.02,0.09666989743709564,0.03954677656292915,0.07416684925556183,0.39897048473358154,-0.882731020450592,-0.1008635014295578
9.04,0.10519175976514816,0.04593817517161369,0.07949301600456238,0.39653050899505615,-0.8817550539970398,-0.10037549585103989
9.06,0.12117026001214981,0.058720968663692474,0.08481918275356293,0.39238250255584717,-0.8866350054740906,-0.09525150060653687
9.08,0.13608351349830627,0.066177599132061,0.09334104508161545,0.39238250255584717,-0.8866350054740906,-0.09525150060653687
9.1,0.14673584699630737,0.07576470077037811,0.09653674066066742,0.390918493270874,-0.8873670101165771,-0.09573949873447418
9.12,0.164844810962677,0.08428656309843063,0.10718907415866852,0.3828665018081665,-0.8902950286865234,-0.09061549603939056
9.14,0.17230144143104553,0.09280842542648315,0.11464570462703705,0.38774651288986206,-0.889074981212616,-0.0857049971818924
9.16,0.1850842386484146,0.10332760214805603,0.11571093648672104,0.3853065073490143,-0.8946870565414429,-0.08228899538516998
9.18,0.20106273889541626,0.11184946447610855,0.12210233509540558,0.37673598527908325,-0.8944429755210876,-0.07155299931764603
9.2,0.20958459377288818,0.11824086308479309,0.1306242048740387,0.3764919936656952,-0.8963950276374817,-0.06423300504684448
9.22,0.22556309401988983,0.13102366030216217,0.13595037162303925,0.3752720057964325,-0.8941989541053772,-0.06252499669790268
9.24,0.2404763549566269,0.13102366030216217,0.1423417627811432,0.3730759918689728,-0.9022509455680847,-0.04956250265240669
9.26,0.2596505582332611,0.14380645751953125,0.14766792953014374,0.3711239993572235,-0.9015190005302429,-0.04273049905896187
9.28,0.2841508984565735,0.15765449404716492,0.14873315393924713,0.37088000774383545,-0.902006983757019,-0.044438499957323074
9.3,0.30012941360473633,0.15765449404716492,0.1519288569688797,0.36551201343536377,-0.9066734910011292,-0.03516649827361107
9.32,0.3224993050098419,0.16404588520526886,0.1529940962791443,0.3606320023536682,-0.9076494574546814,-0.03025600127875805
9.34,0.3342168629169464,0.1821548491716385,0.1508636325597763,0.35941198468208313,-0.9132614731788635,-0.025619998574256897
9.36,0.33954301476478577,0.17682868242263794,0.1721682846546173,0.3564840257167816,-0.9169214963912964,-0.016103999689221382
9.38,0.3438039720058441,0.1810896098613739,0.17962491512298584,0.35450148582458496,-0.9225335121154785,0.0005184999899938703
9.4,0.3459344208240509,0.1800243854522705,0.183885857462883,0.350353479385376,-0.9142375588417053,0.02592500112950802
9.42,0.33954301476478577,0.19600287079811096,0.18814678490161896,0.3442535102367401,-0.9325680732727051,0.0210145004093647
9.44,0.333151638507843,0.2034595012664795,0.18708154559135437,0.3408375084400177,-0.9335440397262573,0.03373299911618233
9.46,0.3246297538280487,0.20878566801548004,0.1849510818719864,0.3281494975090027,-0.9335440397262573,0.039101000875234604
9.48,0.32036882638931274,0.2130466103553772,0.1742987483739853,0.3249469995498657,-0.9244855046272278,0.056211501359939575
9.5,0.30971649289131165,0.2130466103553772,0.1625811904668808,0.3193349838256836,-0.9315919876098633,0.06743549555540085
9.52,0.3107817471027374,0.21624229848384857,0.1519288569688797,0.3203110098838806,-0.933788001537323,0.07893399894237518
9.54,0.30012941360473633,0.21943800151348114,0.14873315393924713,0.3210430145263672,-0.937936007976532,0.09088999778032303
9.56,0.2948032319545746,0.2226337045431137,0.13701559603214264,0.31543099880218506,-0.9305854439735413,0.09845399856567383
9.58,0.28947708010673523,0.21730753779411316,0.12316756695508957,0.31957897543907166,-0.9396439790725708,0.10309000313282013
9.6,0.2692376375198364,0.21091613173484802,0.11251524090766907,0.322750985622406,-0.9545280337333679,0.10751250386238098
9.62,0.24686774611473083,0.19813334941864014,0.10292813926935196,0.3029870092868805,-0.9335440397262573,0.1294724941253662
9.64,0.2191716879606247,0.1704372763633728,0.09121058136224747,0.3083550035953522,-0.9440360069274902,0.13267499208450317
9.66,0.1861494779586792,0.1491326242685318,0.07097115367650986,0.31201499700546265,-0.9430599808692932,0.13682299852371216
9.68,0.1552577167749405,0.1267627328634262,0.05818835273385048,0.30030301213264465,-0.9342759847640991,0.13804300129413605
9.7,0.12969212234020233,0.10239552706480026,0.04647079110145569,0.29685649275779724,-0.9354959726333618,0.14194700121879578
9.72,0.1115831583738327,0.0874822586774826,0.0347532257437706,0.3005470037460327,-0.9413520693778992,0.14731499552726746
9.74,0.08708280324935913,0.06830807030200958,0.02303566411137581,0.299296498298645,-0.9354959726333618,0.1534150093793869
9.76,0.07110430300235748,0.051264338195323944,0.013448567129671574,0.2936845123767853,-0.9352520108222961,0.15683099627494812
9.78,0.04660394415259361,0.031024912372231483,0.005991935729980469,0.28758448362350464,-0.9362279772758484,0.15856949985027313
9.8,0.013581721112132072,0.011850717477500439,-0.0014646954368799925,0.2890484929084778,-0.9374480247497559,0.15561100840568542
9.82,-0.010785484686493874,-0.006258244160562754,-0.01637795753777027,0.2917324900627136,-0.9315919876098633,0.1593015044927597
9.84,-0.043807707726955414,-0.020106272771954536,-0.02809552103281021,0.2919764816761017,-0.9396439790725708,0.16076549887657166
9.86,-0.06511236727237701,-0.03608476743102074,-0.03768261894583702,0.29514849185943604,-0.940619945526123,0.16271750628948212
9.88,-0.08535179495811462,-0.054193731397390366,-0.05472634732723236,0.2980765104293823,-0.9408639669418335,0.15731899440288544
9.9,-0.10559122264385223,-0.06484606117010117,-0.06857437640428543,0.299296498298645,-0.9389119744300842,0.15780700743198395
9.92,-0.1290263533592224,-0.07869409024715424,-0.08348763734102249,0.3012790083885193,-0.9350079894065857,0.1482909917831421
9.94,-0.15778763592243195,-0.0936073511838913,-0.09520520269870758,0.3042069971561432,-0.9354959726333618,0.14463099837303162
9.96,-0.1822880059480667,-0.11278154700994492,-0.10479229688644409,0.30615898966789246,-0.9359839558601379,0.1412149965763092
9.98,-0.20146219432353973,-0.1255643367767334,-0.12077079713344574,0.3088430166244507,-0.9376920461654663,0.13804300129413605
10,-0.21850591897964478,-0.13834713399410248,-0.1250317245721817,0.31494298577308655,-0.9362279772758484,0.12800849974155426
10.02,-0.23874534666538239,-0.14899946749210358,-0.1346188187599182,0.3105509877204895,-0.9384239912033081,0.12800849974155426
10.04,-0.2579195499420166,-0.16497796773910522,-0.1463363915681839,0.3176270127296448,-0.9300974607467651,0.12264050543308258
10.06,-0.2696371078491211,-0.17030413448810577,-0.15379302203655243,0.3181149959564209,-0.9330560564994812,0.11044050008058548
10.08,-0.28348514437675476,-0.18202169239521027,-0.16338011622428894,0.32250699400901794,-0.9328120350837708,0.11019650101661682
10.1,-0.29520270228385925,-0.18734785914421082,-0.17083674669265747,0.3273870050907135,-0.926925539970398,0.09943000227212906
10.12,-0.30585503578186035,-0.18734785914421082,-0.17616291344165802,0.3349815011024475,-0.9298534989356995,0.09186600148677826
10.14,-0.3143768906593323,-0.19693495333194733,-0.18042384088039398,0.32961350679397583,-0.9281455278396606,0.08161800354719162
10.16,-0.3228987455368042,-0.1990654170513153,-0.18681524693965912,0.3403494954109192,-0.9259494543075562,0.07207150012254715
10.18,-0.32715970277786255,-0.20332635939121246,-0.18681524693965912,0.3403494954109192,-0.9259494543075562,0.06206750124692917
10.2,-0.3335510790348053,-0.20652204751968384,-0.19427187740802765,0.3488894999027252,-0.9247294664382935,0.052551496773958206
10.22,-0.33994248509407043,-0.20332635939121246,-0.19214141368865967,0.350353479385376,-0.9196054935455322,0.045444998890161514
10.24,-0.34846433997154236,-0.2001306563615799,-0.1900109350681305,0.35624000430107117,-0.9161894917488098,0.029340999200940132
10.26,-0.3516600430011749,-0.20226112008094788,-0.1900109350681305,0.36160799860954285,-0.9142375588417053,0.02003849856555462
10.28,-0.34739911556243896,-0.2011958807706833,-0.18575000762939453,0.3625839948654175,-0.9086254835128784,0.0134504996240139
10.3,-0.343138188123703,-0.19586972892284393,-0.18255430459976196,0.3701480031013489,-0.9066734910011292,0.002470499835908413
10.32,-0.33674678206443787,-0.19160878658294678,-0.17509767413139343,0.37551599740982056,-0.9071614742279053,-0.011711999773979187
10.34,-0.32929015159606934,-0.18734785914421082,-0.17296721041202545,0.37844401597976685,-0.9027389883995056,-0.024644000455737114
10.36,-0.3111811876296997,-0.17563030123710632,-0.16977150738239288,0.38137200474739075,-0.9052095413208008,-0.028060002252459526
10.38,-0.3037245571613312,-0.17136935889720917,-0.1676410436630249,0.38677048683166504,-0.8959070444107056,-0.04199850186705589
10.4,-0.2920069992542267,-0.16604319214820862,-0.16231487691402435,0.39018648862838745,-0.8956630229949951,-0.045658502727746964
10.42,-0.27602851390838623,-0.1564560979604721,-0.14846685528755188,0.3916504979133606,-0.8902950286865234,-0.06374499946832657
10.44,-0.2685718834400177,-0.15326039493083954,-0.1356840580701828,0.3945784866809845,-0.8880990147590637,-0.06618500500917435
10.46,-0.24939768016338348,-0.13941237330436707,-0.12396649271249771,0.39433449506759644,-0.8898069858551025,-0.0676489993929863
10.48,-0.23874534666538239,-0.13089050352573395,-0.11544463038444519,0.4009225070476532,-0.8854149580001831,-0.07545699924230576
10.5,-0.22915825247764587,-0.1255643367767334,-0.10905323177576065,0.4001905024051666,-0.8871230483055115,-0.0857049971818924
10.52,-0.21211452782154083,-0.11065108329057693,-0.09840089827775955,0.40165451169013977,-0.8817550539970398,-0.09256749600172043
10.54,-0.19720126688480377,-0.10532491654157639,-0.08774857223033905,0.4043384790420532,-0.8783390522003174,-0.09817949682474136
10.56,-0.17589659988880157,-0.0936073511838913,-0.08455286920070648,0.4104689955711365,-0.8785830140113831,-0.10476750135421753
10.58,-0.16843996942043304,-0.08615072071552277,-0.07816147059202194,0.4084864854812622,-0.8768749833106995,-0.11062350869178772
10.6,-0.15352670848369598,-0.07869409024715424,-0.06750914454460144,0.4084864854812622,-0.8768749833106995,-0.11062350869178772
10.62,-0.14393961429595947,-0.0723026916384697,-0.0611177459359169,0.41071298718452454,-0.8817550539970398,-0.11355149745941162
10.64,-0.13648298382759094,-0.06484606117010117,-0.05153064802289009,0.41071298718452454,-0.8756245374679565,-0.1218779981136322
10.66,-0.12796111404895782,-0.061650361865758896,-0.04407401755452156,0.4190090000629425,-0.8763565421104431,-0.1172420009970665
10.68,-0.11198262125253677,-0.052063263952732086,-0.03448691964149475,0.4138849973678589,-0.8751364350318909,-0.12456199526786804
10.7,-0.10239552706480026,-0.04673709720373154,-0.03448691964149475,0.41242098808288574,-0.8685485124588013,-0.12748999893665314
10.72,-0.08854749798774719,-0.037150003015995026,-0.0238345880061388,0.4168129861354828,-0.8695244789123535,-0.132858008146286
10.74,-0.07363422960042953,-0.030758604407310486,-0.02170412242412567,0.41168901324272156,-0.8714765310287476,-0.13603000342845917
10.76,-0.066177599132061,-0.027562905102968216,-0.0185084231197834,0.41339701414108276,-0.8695244789123535,-0.1352979987859726
10.78,-0.054460037499666214,-0.027562905102968216,-0.014247491955757141,0.4190090000629425,-0.8712324500083923,-0.13968999683856964
10.8,-0.05232957378029823,-0.021171506494283676,-0.011051792651414871,0.4177890121936798,-0.8714765310287476,-0.13798199594020844
10.82,-0.03954677656292915,-0.015845341607928276,-0.0025299284607172012,0.41632500290870667,-0.8719645142555237,-0.138714000582695
10.84,-0.029959678649902344,-0.011584409512579441,0.005991935729980469,0.4168129861354828,-0.8705004453659058,-0.1470405012369156
10.86,-0.025698747485876083,-0.011584409512579441,0.007057168986648321,0.4229130148887634,-0.8729405403137207,-0.1441124975681305
10.88,-0.018242115154862404,-0.006258244160562754,0.007057168986648321,0.41632500290870667,-0.8731845021247864,-0.14139799773693085
10.9,-0.006524552125483751,-0.001997311832383275,0.007057168986648321,0.4185210168361664,-0.8731845021247864,-0.14264850318431854
10.92,0.0018641578499227762,-0.001997311832383275,0.009187635034322739,0.4199850261211395,-0.8700124621391296,-0.138714000582695
10.94,0.00719032296910882,-0.0009320789249613881,0.01664426550269127,0.4168129861354828,-0.8705004453659058,-0.1441124975681305
10.96,0.019973119720816612,0.004394086077809334,0.02090519852936268,0.4168129861354828,-0.8729405403137207,-0.14216050505638123
10.98,0.024234050884842873,0.005459319334477186,0.02090519852936268,0.4214489758014679,-0.8729405403137207,-0.14188599586486816
11,0.03169068321585655,0.012915950268507004,0.02516612969338894,0.4165689945220947,-0.8724524974822998,-0.13944600522518158
11.02,0.03595161437988281,0.012915950268507004,0.02836182899773121,0.41803300380706787,-0.8731845021247864,-0.1428924947977066
11.04,0.04660394415259361,0.018242115154862404,0.03155753016471863,0.41290897130966187,-0.8753804564476013,-0.13456600904464722
11.06,0.0476691760122776,0.023568280041217804,0.03688369318842888,0.41461700201034546,-0.8761125206947327,-0.13944600522518158
11.08,0.05299534276127815,0.034220609813928604,0.04114462435245514,0.4104689955711365,-0.8790709972381592,-0.13895800709724426
11.1,0.06045197322964668,0.041677240282297134,0.04647079110145569,0.4089744985103607,-0.8766005039215088,-0.13603000342845917
11.12,0.06577813625335693,0.044872939586639404,0.04647079110145569,0.4089744985103607,-0.8778510093688965,-0.13212600350379944
11.14,0.07323476672172546,0.05659050494432449,0.05179695412516594,0.40998101234436035,-0.8798030018806458,-0.12871000170707703
11.16,0.08175663650035858,0.060851436108350754,0.0560578890144825,0.4075104892253876,-0.8778510093688965,-0.12285400182008743
11.18,0.0902784988284111,0.06511236727237701,0.06457975506782532,0.4109569787979126,-0.8819990158081055,-0.12334199994802475
11.2,0.10199606418609619,0.07150376588106155,0.06564498692750931,0.40824249386787415,-0.8805349469184875,-0.12504999339580536
11.22,0.11690932512283325,0.0778951644897461,0.07203638553619385,0.4060465097427368,-0.875868558883667,-0.1189500018954277
11.24,0.1339530497789383,0.08322133123874664,0.08268871158361435,0.4075104892253876,-0.8746484518051147,-0.12407399713993073
11.26,0.14567062258720398,0.09067796170711517,0.08694964647293091,0.40409448742866516,-0.8805349469184875,-0.11577799916267395
11.28,0.16377957165241241,0.10332760214805603,0.09227581322193146,0.40458250045776367,-0.8817550539970398,-0.10989149659872055
11.3,0.1744319051504135,0.11078423261642456,0.09760197252035141,0.40409448742866516,-0.8866350054740906,-0.10745150595903397
11.32,0.19360610842704773,0.12037133425474167,0.11038476973772049,0.39823850989341736,-0.882731020450592,-0.10037549585103989
11.34,0.21064983308315277,0.13421936333179474,0.1199718713760376,0.39945849776268005,-0.8920029997825623,-0.10183950513601303
11.36,0.23728065192699432,0.15339355170726776,0.13808083534240723,0.39555448293685913,-0.8920029997825623,-0.09256749600172043
11.38,0.24686774611473083,0.17256775498390198,0.14553746581077576,0.390918493270874,-0.8971269726753235,-0.08841949701309204
11.4,0.26604193449020386,0.19600287079811096,0.1529940962791443,0.3879905045032501,-0.8922470211982727,-0.08521699905395508
11.42,0.30012941360473633,0.19919857382774353,0.15832026302814484,0.39238250255584717,-0.9027389883995056,-0.07594499737024307
11.44,0.35339105129241943,0.2013290375471115,0.1508636325597763,0.3916504979133606,-0.8983469605445862,-0.06350100040435791
11.46,0.4130440950393677,0.21730753779411316,0.16045072674751282,0.38969850540161133,-0.8949310183525085,-0.06106100231409073
11.48,0.525958776473999,0.2332860380411148,0.16471165418624878,0.3857944905757904,-0.882731020450592,-0.03833850100636482
11.5,0.6195661425590515,0.2748301327228546,0.15832026302814484,0.36575600504875183,-0.8878549933433533,-0.03980249911546707
11.52,0.7111762166023254,0.3398093283176422,0.16790735721588135,0.3530375063419342,-0.9120414853096008,-0.026840001344680786
11.54,0.9029181599617004,0.45165881514549255,0.21264714002609253,0.3764919936656952,-0.908381462097168,0.0027145000640302896
11.56,1.1063776016235352,0.5762910842895508,0.2764279842376709,0.38185998797416687,-0.9350079894065857,0.011986500583589077
11.58,1.2468552589416504,0.7955959439277649,0.3083849549293518,0.37258797883987427,-0.9479399919509888,0.03422100096940994
11.6,1.2266157865524292,0.7849435806274414,0.34566810727119446,0.3501094877719879,-0.9298534989356995,0.06231149658560753
11.62,0.8539174199104309,0.8509880304336548,0.32542869448661804,0.31616300344467163,-0.9093575477600098,0.0777139961719513
11.64,0.5398068428039551,0.7115756869316101,0.31477636098861694,0.2878285050392151,-0.857324481010437,0.1727214902639389
11.66,0.47056668996810913,0.4772244095802307,0.3073197305202484,0.2983205020427704,-0.8561044931411743,0.2252425104379654
11.68,0.5600462555885315,0.5901390910148621,0.2860150635242462,0.3134790062904358,-0.8978589773178101,0.16930550336837769
11.7,0.668566882610321,0.718899130821228,0.31371113657951355,0.3198229968547821,-0.9130174517631531,0.1785774976015091
11.72,0.7431331872940063,0.8914669156074524,0.36803799867630005,0.29612448811531067,-0.9178975224494934,0.20374000072479248
11.74,0.8272866010665894,1.032077670097351,0.4575175940990448,0.2614459991455078,-0.9069175124168396,0.22207050025463104
11.76,0.8890700936317444,1.186536431312561,0.5107792615890503,0.23652750253677368,-0.9007869958877563,0.24698899686336517
11.78,0.97641921043396,1.4026455879211426,0.5619103908538818,0.27294450998306274,-0.9017629623413086,0.28435149788856506
11.8,1.0030500888824463,1.559234857559204,0.6109111309051514,0.24238350987434387,-0.8873670101165771,0.2951180040836334
11.82,1.053115963935852,1.6423230171203613,0.6418029069900513,0.22335149347782135,-0.8709884881973267,0.34443649649620056
11.84,1.1628350019454956,1.650844931602478,0.6812165379524231,0.1886425018310547,-0.8746484518051147,0.3791455030441284
11.86,1.2532466650009155,1.7328678369522095,0.6812165379524231,0.18205450475215912,-0.8810229897499084,0.40159350633621216
11.88,1.327812910079956,1.7563029527664185,0.735543429851532,0.1407879889011383,-0.8763565421104431,0.44825848937034607
11.9,1.4375319480895996,1.7573682069778442,0.8440639972686768,0.08241099864244461,-0.8522005081176758,0.5080994963645935
11.92,1.5099678039550781,1.7594985961914062,0.8888037800788879,0.07530450075864792,-0.8304539322853088,0.523501992225647
11.94,1.6026431322097778,1.636996865272522,0.963370144367218,0.03501399978995323,-0.7989475131034851,0.5491524934768677
11.96,1.6505786180496216,1.6561710834503174,1.025153636932373,0.03501399978995323,-0.7989475131034851,0.5491524934768677
11.98,1.6527090072631836,1.5848004817962646,1.0336755514144897,-0.018482999876141548,-0.801631510257721,0.5655004978179932
12,1.695318341255188,1.4484505653381348,1.0592410564422607,-0.05660799890756607,-0.775005042552948,0.6380599737167358
12.02,1.6846660375595093,1.2728203535079956,1.1274160146713257,-0.12596499919891357,-0.7141879796981812,0.6839930415153503
12.04,1.6143606901168823,1.0469908714294434,1.1519163846969604,-0.21584850549697876,-0.6956135034561157,0.680088996887207
12.06,1.3746832609176636,0.9596418142318726,1.118894100189209,-0.2285669893026352,-0.6755750179290771,0.7760725021362305
12.08,1.2330071926116943,0.8318138122558594,1.0943937301635742,-0.31113049387931824,-0.6584950089454651,0.7770484685897827
12.1,1.1244865655899048,0.6998580694198608,0.9995880126953125,-0.33312100172042847,-0.6330885291099548,0.7631404995918274
12.12,1.0105066299438477,0.6061176061630249,0.9399349689483643,-0.3966220021247864,-0.557112991809845,0.7973309755325317
12.14,0.9615059494972229,0.5645735263824463,0.8515206575393677,-0.4208085238933563,-0.5502809882164001,0.8051390051841736
12.16,0.8762873411178589,0.5422036051750183,0.7472609877586365,-0.45499899983406067,-0.482601523399353,0.8251774907112122
12.18,0.8539174199104309,0.5539211630821228,0.6929340958595276,-0.4682054817676544,-0.4887015223503113,0.8364015221595764
12.2,0.7473941445350647,0.529420793056488,0.6247591972351074,-0.4618310034275055,-0.46036699414253235,0.8298134803771973
12.22,0.6664364337921143,0.5187684893608093,0.543801486492157,-0.4852854907512665,-0.44792303442955017,0.8579039573669434
12.24,0.5845466256141663,0.4356802999973297,0.47349607944488525,-0.4723534882068634,-0.4337405264377594,0.8349374532699585
12.26,0.4726971685886383,0.36857062578201294,0.41064733266830444,-0.44938698410987854,-0.41788047552108765,0.8366455435752869
12.28,0.3991960883140564,0.31530898809432983,0.3818860352039337,-0.45621898770332336,-0.40369799733161926,0.8361575603485107
12.3,0.3384777903556824,0.2673735022544861,0.353124737739563,-0.4735735058784485,-0.39491400122642517,0.8378654718399048
12.32,0.2830856740474701,0.22050324082374573,0.31584158539772034,-0.48064950108528137,-0.37633949518203735,0.8432639837265015
12.34,0.24580252170562744,0.2034595012664795,0.2892107665538788,-0.48430952429771423,-0.3707275092601776,0.8366455435752869
12.36,0.2074541300535202,0.17256775498390198,0.24234052002429962,-0.4884575307369232,-0.35800901055336,0.8251774907112122
12.38,0.18401899933815002,0.1480673849582672,0.19240771234035492,-0.4997119903564453,-0.3533730208873749,0.8229815363883972
12.4,0.15845340490341187,0.1278279572725296,0.15405932068824768,-0.5121560096740723,-0.34434500336647034,0.8232255578041077
12.42,0.12969212234020233,0.0991998240351677,0.10505861043930054,-0.5172799825668335,-0.3353169858455658,0.8215174674987793
12.44,0.09880036115646362,0.08215609937906265,0.07310161739587784,-0.5182560086250305,-0.33016249537467957,0.8139535188674927
12.46,0.07536523789167404,0.05659050494432449,0.05392742156982422,-0.5236544609069824,-0.3230865001678467,0.824689507484436
12.48,0.05619104206562042,0.04593817517161369,0.004926702938973904,-0.5304864645004272,-0.3257704973220825,0.8285934925079346
12.5,0.029560215771198273,0.026763979345560074,-0.02809552103281021,-0.5246304869651794,-0.3201584815979004,0.8256654739379883
12.52,-0.00226362026296556,-0.009453942999243736,-0.05366111174225807,-0.5248745083808899,-0.32674652338027954,0.8259094953536987
12.54,-0.047003407031297684,-0.05632419511675835,-0.07816147059202194,-0.5214585065841675,-0.33434098958969116,0.8181014657020569
12.56,-0.07576470077037811,-0.07975932210683823,-0.10479229688644409,-0.5182560086250305,-0.3387329876422882,0.8159055113792419
12.58,-0.10985215753316879,-0.12023817747831345,-0.14314068853855133,-0.5145959854125977,-0.3492250144481659,0.8195655345916748
12.6,-0.13648298382759094,-0.1575213372707367,-0.17083674669265747,-0.5082520246505737,-0.34824898838996887,0.8176134824752808
12.62,-0.16417904198169708,-0.18202169239521027,-0.20598943531513214,-0.505079984664917,-0.35239699482917786,0.8283495306968689
12.64,-0.1950708031654358,-0.20439158380031586,-0.23475073277950287,-0.5048359632492065,-0.3577650189399719,0.8312775492668152
12.66,-0.23235395550727844,-0.23315288126468658,-0.2539249360561371,-0.4992240071296692,-0.3668235242366791,0.83103346824646
12.68,-0.2770937383174896,-0.2768274247646332,-0.2933385372161865,-0.4852854907512665,-0.37463149428367615,0.8359135389328003
12.7,-0.3218335211277008,-0.3194367587566376,-0.32316505908966064,-0.4772334694862366,-0.3841474950313568,0.8373774886131287
12.72,-0.3846822679042816,-0.3684374690055847,-0.37323102355003357,-0.4728414714336395,-0.3919859826564789,0.8454599380493164
12.74,-0.431552529335022,-0.40891632437705994,-0.4125114977359772,-0.46134302020072937,-0.4139765202999115,0.8408239483833313
12.76,-0.4922707974910736,-0.4738955497741699,-0.46790361404418945,-0.44792303442955017,-0.42251652479171753,0.8447279930114746
12.78,-0.5657718777656555,-0.5440677404403687,-0.5126433968544006,-0.4349604845046997,-0.43642449378967285,0.848143994808197
12.8,-0.6636402010917664,-0.5898727774620056,-0.5733616948127747,-0.41544049978256226,-0.4467029869556427,0.8442400097846985
12.82,-0.7371412515640259,-0.6186341047286987,-0.6149057745933533,-0.3966220021247864,-0.4625629782676697,0.837133526802063
12.84,-0.8351426720619202,-0.6548519730567932,-0.662841260433197,-0.39491400122642517,-0.4752814769744873,0.8254215121269226
12.86,-0.9054480791091919,-0.6356778144836426,-0.7139724493026733,-0.38048750162124634,-0.4845535159111023,0.8183455467224121
12.88,-0.9523183107376099,-0.6367430686950684,-0.5850792527198792,-0.3441010117530823,-0.48430952429771423,0.8173694610595703
12.9,-0.9693620800971985,-0.5760247707366943,-0.7299509048461914,-0.35239699482917786,-0.5258504748344421,0.8000149726867676
12.92,-0.9757534265518188,-0.5845466256141663,-0.8673660159111023,-0.3526409864425659,-0.5519890189170837,0.8058710098266602
12.94,-1.003449559211731,-0.63248211145401,-0.8822792768478394,-0.3257704973220825,-0.5685809850692749,0.8022109866142273
12.96,-1.029015064239502,-0.7336792349815369,-0.8939968347549438,-0.3077144920825958,-0.5954514741897583,0.8000149726867676
12.98,-1.0492545366287231,-0.8689638376235962,-0.947258472442627,-0.26544150710105896,-0.6296420097351074,0.7995269894599915
13,-1.058841586112976,-1.0202269554138184,-0.9579107761383057,-0.23588699102401733,-0.6509004831314087,0.7965990304946899
13.02,-1.0609720945358276,-1.1596393585205078,-0.9664326906204224,-0.19803649187088013,-0.6721590161323547,0.7821725010871887
13.04,-1.0641677379608154,-1.2704235315322876,-0.9728240370750427,-0.1508834958076477,-0.7000054717063904,0.7636284828186035
13.06,-1.1142337322235107,-1.3140981197357178,-0.9781502485275269,-0.11034899950027466,-0.7254120111465454,0.7355380058288574
13.08,-1.1653649806976318,-1.4057080745697021,-0.9866721034049988,-0.08225850015878677,-0.7447185516357422,0.7179394960403442
13.1,-1.197321891784668,-1.4983834028244019,-0.9557803273200989,-0.0394974984228611,-0.769881010055542,0.6739585399627686
13.12,-1.2280805110931396,-1.4845353364944458,-0.9025186896324158,-0.016042999923229218,-0.7854970097541809,0.6239079833030701
13.14,-1.2302110195159912,-1.4802744388580322,-0.8758878707885742,-0.016042999923229218,-0.7854970097541809,0.6239079833030701
13.16,-1.223819613456726,-1.3748164176940918,-0.8204957246780396,0.02180750109255314,-0.7945250272750854,0.5921269655227661
13.18,-1.1834739446640015,-1.389729619026184,-0.7576469779014587,0.06676450371742249,-0.8289899826049805,0.5633045434951782
13.2,-1.1621692180633545,-1.2395317554473877,-0.7448641657829285,0.11147750169038773,-0.8402140140533447,0.5440285205841064
13.22,-1.1248860359191895,-1.2459231615066528,-0.7224943041801453,0.13002149760723114,-0.8541525602340698,0.5256980061531067
13.24,-1.097190022468567,-1.1830744743347168,-0.671363115310669,0.16030798852443695,-0.8561044931411743,0.5007795095443726
13.26,-1.0513850450515747,-1.054314374923706,-0.6372756361961365,0.19696900248527527,-0.8626925349235535,0.48809146881103516
13.28,-1.035406470298767,-0.9850742220878601,-0.5733616948127747,0.17302650213241577,-0.853176474571228,0.4328864812850952
13.3,-0.99599289894104,-0.9179645776748657,-0.5339480638504028,0.23384350538253784,-0.8617164492607117,0.41675201058387756
13.32,-0.9629706740379333,-0.8327459096908569,-0.49986058473587036,0.25583401322364807,-0.8636685013771057,0.36545100808143616
13.34,-0.9107742309570312,-0.8061150908470154,-0.4721645414829254,0.2597379982471466,-0.8509805202484131,0.34199652075767517
13.36,-0.8575125932693481,-0.7219616770744324,-0.45938172936439514,0.2795324921607971,-0.8534204363822937,0.31244200468063354
13.38,-0.7840114831924438,-0.7240921258926392,-0.4220985770225525,0.2844125032424927,-0.8480220437049866,0.2928915023803711
13.4,-0.7371412515640259,-0.5621767044067383,-0.4199681282043457,0.3127470016479492,-0.8548845052719116,0.2694675028324127
13.42,-0.6732272505760193,-0.5078498721122742,-0.38601380586624146,0.32299500703811646,-0.8553724884986877,0.2543089985847473
13.44,-0.6146394610404968,-0.48348262906074524,-0.34553495049476624,0.32299500703811646,-0.8553724884986877,0.2543089985847473
13.46,-0.5178363919258118,-0.5142412185668945,-0.3071865737438202,0.358924001455307,-0.8568364977836609,0.20349599421024323
13.48,-0.49653175473213196,-0.37589409947395325,-0.2837514579296112,0.358924001455307,-0.8568364977836609,0.20349599421024323
13.5,-0.4688356816768646,-0.33328479528427124,-0.2645772397518158,0.3757599890232086,-0.8670845627784729,0.1837015002965927
13.52,-0.42196542024612427,-0.29067546129226685,-0.21344606578350067,0.37893199920654297,-0.86342453956604,0.18248149752616882
13.54,-0.3729647099971771,-0.2544575333595276,-0.178293377161026,0.3921385109424591,-0.8639125227928162,0.16710950434207916
13.56,-0.3111811876296997,-0.2874797582626343,-0.15166255831718445,0.3999464809894562,-0.8485100269317627,0.15390300750732422
13.58,-0.278158962726593,-0.22995717823505402,-0.16124965250492096,0.4092184901237488,-0.8687925338745117,0.13682299852371216
13.6,-0.24087581038475037,-0.18202169239521027,-0.13035789132118225,0.4072664976119995,-0.8624484539031982,0.1353590041399002
13.62,-0.18015754222869873,-0.12023817747831345,-0.08987903594970703,0.4072664976119995,-0.8624484539031982,0.1353590041399002
13.64,-0.12476541846990585,-0.0723026916384697,-0.06750914454460144,0.4033624827861786,-0.8526884913444519,0.13682299852371216
13.66,-0.0874822586774826,-0.050998032093048096,-0.04940018057823181,0.4033624827861786,-0.8580564856529236,0.12556849420070648
13.68,-0.010785484686493874,-0.006258244160562754,-0.0185084231197834,0.39482250809669495,-0.8590325117111206,0.12971650063991547
13.7,0.04447348043322563,0.029959678649902344,0.009187635034322739,0.3933584988117218,-0.8595204949378967,0.13389500975608826
13.72,0.1009308323264122,0.06404713541269302,0.03794892504811287,0.39360249042510986,-0.8570804595947266,0.12971650063991547
13.74,0.16164910793304443,0.09706936031579971,0.06884068250656128,0.3928705155849457,-0.8602524995803833,0.13682299852371216
13.76,0.20212796330451965,0.11824086308479309,0.09547150880098343,0.38969850540161133,-0.8580564856529236,0.14048300683498383
13.78,0.2511286735534668,0.15232832729816437,0.11677616834640503,0.390918493270874,-0.8541525602340698,0.14438700675964355
13.8,0.3022598624229431,0.18854624032974243,0.14340700209140778,0.38945451378822327,-0.8617164492607117,0.14951099455356598
13.82,0.36191290616989136,0.2439383566379547,0.1721682846546173,0.3853065073490143,-0.8629365563392639,0.15512299537658691
13.84,0.4087831676006317,0.2780258059501648,0.19666863977909088,0.3850625157356262,-0.8619604706764221,0.17003749310970306
13.86,0.44926202297210693,0.3195699155330658,0.22636201977729797,0.3781999945640564,-0.8658644556999207,0.17711348831653595
13.88,0.5046541690826416,0.36644014716148376,0.2529928386211395,0.37844401597976685,-0.8680605292320251,0.19910399615764618
13.9,0.5579158067703247,0.4037233293056488,0.2849498391151428,0.3781999945640564,-0.8668404817581177,0.2117920070886612
13.92,0.6323489546775818,0.4346150755882263,0.31584158539772034,0.3752720057964325,-0.8565924763679504,0.22085051238536835
13.94,0.7058500051498413,0.46231111884117126,0.3499290347099304,0.3713679909706116,-0.8541525602340698,0.23963849246501923
13.96,0.7804163694381714,0.49426811933517456,0.38827744126319885,0.36331599950790405,-0.8460699915885925,0.25577297806739807
13.98,0.8571131229400635,0.5475297570228577,0.456452339887619,0.3391295075416565,-0.8302099704742432,0.27044349908828735
14,0.9210271239280701,0.6199656128883362,0.5331491231918335,0.3151869773864746,-0.8250859975814819,0.28386351466178894
14.02,0.9806801676750183,0.718899130821228,0.6077154278755188,0.2895365059375763,-0.8341139554977417,0.30438998341560364
14.04,1.0520507097244263,0.8541837334632874,0.674825131893158,0.2751404941082001,-0.8436299562454224,0.3232084810733795
14.06,1.1319432258605957,0.9841421842575073,0.7291520237922668,0.2668139934539795,-0.8529324531555176,0.34443649649620056
14.08,1.191596269607544,1.0821435451507568,0.7525871396064758,0.2648620009422302,-0.854640543460846,0.38597750663757324
14.1,1.2628337144851685,1.1876016855239868,0.7920007705688477,0.2555899918079376,-0.8489980101585388,0.4243159890174866
14.12,1.3097039461135864,1.2834726572036743,0.8429988026618958,0.22457149624824524,-0.838018000125885,0.448014497756958
14.14,1.382139801979065,1.4346026182174683,0.9324783682823181,0.19574899971485138,-0.8143194913864136,0.47586098313331604
14.16,1.4748151302337646,1.6646928787231445,1.062436819076538,0.15347599983215332,-0.7969955205917358,0.4966314733028412
14.18,1.548316240310669,1.8905223608016968,1.1625686883926392,0.08265500515699387,-0.7915970087051392,0.5335060358047485
14.2,1.625012993812561,2.1396536827087402,1.2509829998016357,0.03281800076365471,-0.798459529876709,0.5809029936790466
14.22,1.685731291770935,2.336721897125244,1.3031795024871826,-0.007259000092744827,-0.7960194945335388,0.6131414771080017
14.24,1.7539061307907104,2.322873830795288,1.301048994064331,-0.026290997862815857,-0.7596024870872498,0.6346439719200134
14.26,1.8347307443618774,2.3292651176452637,1.3425930738449097,-0.09689849615097046,-0.7156519889831543,0.6891170144081116
14.28,1.8965142965316772,2.361222267150879,1.416094183921814,-0.13182100653648376,-0.6811869740486145,0.7147675156593323
14.3,1.9433845281600952,2.1939804553985596,1.4575051069259644,-0.22563901543617249,-0.6689870357513428,0.7357819676399231
14.32,1.9007751941680908,1.8479130268096924,1.402246117591858,-0.30747050046920776,-0.6631309986114502,0.7646045088768005
14.34,1.7240796089172363,1.4963860511779785,1.385202407836914,-0.4068700075149536,-0.6313804984092712,0.7704604864120483
14.36,1.3512481451034546,1.4867990016937256,1.2957228422164917,-0.5067880153656006,-0.5436625480651855,0.7948909997940063
14.38,1.3448567390441895,1.330209732055664,1.2967880964279175,-0.5290225148200989,-0.38341549038887024,0.879894495010376
14.4,1.3842703104019165,1.2504503726959229,1.3670934438705444,-0.5116680264472961,-0.3416610062122345,0.848143994808197
14.42,1.3469871282577515,1.1897320747375488,1.4342031478881836,-0.5116680264472961,-0.3416610062122345,0.848143994808197
14.44,1.1457912921905518,0.994794487953186,1.3734848499298096,-0.6130499839782715,-0.3094225227832794,0.8418000340461731
14.46,0.8624392747879028,0.6178351640701294,1.2211564779281616,-0.6130499839782715,-0.3094225227832794,0.8418000340461731
14.48,0.6738930344581604,0.4228975176811218,1.0762847661972046,-0.6440684795379639,-0.30698248744010925,0.8139535188674927
14.5,0.586677074432373,0.20026381313800812,0.9473916292190552,-0.6365044713020325,-0.203404501080513,0.7904990315437317
14.52,0.5600462555885315,0.044872939586639404,0.880281925201416,-0.6365044713020325,-0.203404501080513,0.7904990315437317
14.54,0.6037208437919617,-0.055258963257074356,0.8696296215057373,-0.6145139932632446,-0.14380750060081482,0.7912309765815735
14.56,0.6749582886695862,0.043807707726955414,0.902651846408844,-0.6145139932632446,-0.14380750060081482,0.7912309765815735
14.58,0.699458658695221,0.11504516750574112,0.8323464393615723,-0.5666289925575256,-0.047305501997470856,0.7900109887123108
14.6,0.6515231728553772,0.066177599132061,0.8037183284759521,-0.6694750189781189,-0.11202649772167206,0.807578980922699
14.62,0.524893581867218,0.04274247586727142,0.6354115009307861,-0.6404085159301758,-0.03534949943423271,0.8193215131759644
14.64,0.4396749436855316,-0.006258244160562754,0.5555190443992615,-0.6755750179290771,-0.04462150111794472,0.8090429902076721
14.66,0.38321757316589355,-0.08188978582620621,0.4681699275970459,-0.6755750179290771,-0.04462150111794472,0.8090429902076721
14.68,0.3651086091995239,-0.07443315535783768,0.413843035697937,-0.646508514881134,-0.017994999885559082,0.8100190162658691
14.7,0.32995593547821045,-0.05312849581241608,0.3829512596130371,-0.6389445066452026,-0.020923001691699028,0.8207855224609375
14.72,0.28628137707710266,-0.05632419511675835,0.34779858589172363,-0.623054027557373,-0.0006404999876394868,0.8237135410308838
14.74,0.24154159426689148,-0.029693370684981346,0.2657756507396698,-0.6628869771957397,-0.002592500066384673,0.832985520362854
14.76,0.1957365721464157,-0.019041040912270546,0.1828206181526184,-0.6374804973602295,0.004483500029891729,0.8166375160217285
14.78,0.15632294118404388,-0.0009320789249613881,0.12529803812503815,-0.652852475643158,0.0000914999982342124,0.8039190173149109
14.8,0.10412652790546417,0.026763979345560074,0.07416684925556183,-0.6426044702529907,-0.0033245000522583723,0.8144415020942688
14.82,0.08495233207941055,0.022503048181533813,0.04114462435245514,-0.646508514881134,-0.010919000022113323,0.8129469752311707
14.84,0.05938674136996269,0.010785484686493874,0.013448567129671574,-0.646508514881134,-0.010919000022113323,0.8129469752311707
14.86,0.04447348043322563,-0.006258244160562754,-0.014247491955757141,-0.6435804963111877,-0.010919000022113323,0.8188335299491882
14.88,0.03808208182454109,0.00226362026296556,-0.01744319126009941,-0.6387004852294922,0.0049715000204741955,0.8070909976959229
14.9,0.0370168462395668,0.023568280041217804,-0.01957365684211254,-0.6352844834327698,0.014731500297784805,0.8124589920043945
14.92,0.04021254554390907,0.024633513763546944,-0.011051792651414871,-0.6321125030517578,0.009119500406086445,0.8134655356407166
14.94,0.04234301298856735,0.021437814459204674,-0.012117025442421436,-0.6374804973602295,0.011559500358998775,0.8171254992485046
14.96,0.027429750189185143,0.010785484686493874,-0.008921326138079166,-0.6313804984092712,0.012047499418258667,0.8202974796295166
14.98,0.013581721112132072,-0.005193010903894901,-0.013182258233428001,-0.6284525394439697,0.002287500072270632,0.8151735067367554
15,-0.007589785382151604,-0.020106272771954536,-0.011051792651414871,-0.629428505897522,0.00375150004401803,0.8137094974517822
15.02,-0.021437814459204674,-0.022236740216612816,-0.008921326138079166,-0.6267139911651611,0.004727500025182962,0.8181014657020569
15.04,-0.015046416781842709,-0.021171506494283676,-0.009986559860408306,-0.6286965012550354,0.00985149946063757,0.8087989687919617
15.06,-0.021437814459204674,-0.021171506494283676,-0.008921326138079166,-0.6318684816360474,0.012291500344872475,0.8146854639053345
15.08,-0.022503048181533813,-0.008388710208237171,-0.011051792651414871,-0.6299164891242981,0.010583500377833843,0.8149294853210449
15.1,-0.015046416781842709,-0.010519175790250301,-0.009986559860408306,-0.6413845419883728,0.01351150032132864,0.8107509613037109
15.12,-0.012915950268507004,-0.009453942999243736,-0.005725627299398184,-0.6389445066452026,0.01277950033545494,0.8083109855651855
15.14,-0.016111649572849274,-0.011584409512579441,-0.00359516148455441,-0.6372365355491638,0.013023500330746174,0.8097749948501587
15.16,-0.018242115154862404,-0.008388710208237171,-0.0014646954368799925,-0.6399204730987549,0.011803499422967434,0.8119710087776184
15.18,-0.012915950268507004,-0.005193010903894901,0.0017310036346316338,-0.6357724666595459,0.005459500011056662,0.8124589920043945
15.2,-0.011850717477500439,-0.004127778112888336,-0.005725627299398184,-0.6323565244674683,0.002531500067561865,0.8163934946060181
15.22,-0.012915950268507004,-0.004127778112888336,-0.005725627299398184,-0.6291844844818115,0.0027754998300224543,0.8134655356407166
15.24,-0.011850717477500439,-0.001997311832383275,-0.004660394508391619,-0.6340644955635071,0.003263500053435564,0.8107509613037109
15.26,-0.013981183059513569,0.0011983871227130294,-0.006790860556066036,-0.633576512336731,0.0035075002815574408,0.8137094974517822
15.28,-0.008655018173158169,-0.0030625448562204838,-0.005725627299398184,-0.6313804984092712,0.004483500029891729,0.8137094974517822
15.3,-0.004394086077809334,0.0011983871227130294,-0.0025299284607172012,-0.630404531955719,0.0064354995265603065,0.8141974806785583
15.32,-0.007589785382151604,0.0011983871227130294,0.000665770610794425,-0.6330885291099548,0.0003355000226292759,0.8134655356407166
15.34,-0.00226362026296556,0.0001331541279796511,-0.0003994623839389533,-0.6323565244674683,0.004239500034600496,0.8139535188674927
15.36,-0.0033288532868027687,0.0011983871227130294,0.0027962366584688425,-0.630404531955719,0.005947500001639128,0.8168814778327942
15.38,-0.0033288532868027687,0.00226362026296556,0.000665770610794425,-0.6286965012550354,0.0064354995265603065,0.8146854639053345
15.4,-0.004394086077809334,-0.005193010903894901,-0.0025299284607172012,-0.6323565244674683,0.003019500058144331,0.8151735067367554
15.42,-0.006524552125483751,-0.0009320789249613881,0.0017310036346316338,-0.6308925151824951,0.0052155000157654285,0.8097749948501587
15.44,-0.007589785382151604,-0.0030625448562204838,-0.0014646954368799925,-0.6306484937667847,0.005459500011056662,0.8141974806785583
15.46,-0.007589785382151604,0.0001331541279796511,-0.0003994623839389533,-0.6323565244674683,0.007655499503016472,0.8176134824752808
15.48,-0.009720250964164734,0.0001331541279796511,-0.0014646954368799925,-0.6311364769935608,0.004727500025182962,0.8109949827194214
15.5,-0.007589785382151604,0.0011983871227130294,-0.00359516148455441,-0.6323565244674683,0.0049715000204741955,0.8168814778327942
15.52,-0.009720250964164734,-0.004127778112888336,-0.00359516148455441,-0.6301605105400085,0.0052155000157654285,0.8168814778327942
15.54,-0.011850717477500439,-0.004127778112888336,-0.00359516148455441,-0.633576512336731,0.004239500034600496,0.8141974806785583
15.56,-0.009720250964164734,-0.005193010903894901,-0.005725627299398184,-0.6284525394439697,0.0020435000769793987,0.8137094974517822
15.58,-0.009720250964164734,0.0001331541279796511,-0.00359516148455441,-0.6318684816360474,0.004727500025182962,0.8185895681381226
15.6,-0.009720250964164734,-0.001997311832383275,-0.00359516148455441,-0.6318684816360474,0.0017994999652728438,0.8146854639053345
15.62,-0.009720250964164734,-0.0030625448562204838,-0.004660394508391619,-0.627202033996582,0.004239500034600496,0.812703013420105
15.64,-0.007589785382151604,-0.0030625448562204838,-0.0025299284607172012,-0.6301605105400085,0.005703500006347895,0.8198094964027405
15.66,-0.007589785382151604,-0.004127778112888336,0.000665770610794425,-0.6299164891242981,0.0010674999793991446,0.8178574442863464
15.68,-0.0033288532868027687,-0.004127778112888336,-0.0003994623839389533,-0.6299164891242981,0.0010674999793991446,0.8178574442863464
15.7,-0.005459319334477186,0.0001331541279796511,0.0017310036346316338,-0.6316244602203369,0.004727500025182962,0.8168814778327942
15.72,-0.006524552125483751,-0.0030625448562204838,-0.0014646954368799925,-0.6316244602203369,0.004727500025182962,0.8168814778327942
15.74,-0.004394086077809334,0.0011983871227130294,-0.0003994623839389533,-0.6316244602203369,0.002531500067561865,0.8122150301933289
15.76,-0.004394086077809334,0.0011983871227130294,-0.0014646954368799925,-0.6286965012550354,0.002287500072270632,0.8198094964027405
15.78,-0.00226362026296556,-0.006258244160562754,-0.004660394508391619,-0.6286965012550354,0.002287500072270632,0.8198094964027405
15.8,-0.006524552125483751,0.0011983871227130294,-0.004660394508391619,-0.6301605105400085,0.004483500029891729,0.8166375160217285
15.82,-0.004394086077809334,0.0033288532868027687,-0.00359516148455441,-0.629428505897522,0.00375150004401803,0.8141974806785583
15.84,-0.00226362026296556,0.0033288532868027687,0.0017310036346316338,-0.6299164891242981,0.003263500053435564,0.8141974806785583
15.86,-0.00226362026296556,0.0033288532868027687,0.0017310036346316338,-0.6296724677085876,0.0008234999841079116,0.8134655356407166
15.88,-0.004394086077809334,0.008655018173158169,0.000665770610794425,-0.6277204751968384,0.006191499996930361,0.8181014657020569
15.9,-0.00226362026296556,0.0033288532868027687,-0.0025299284607172012,-0.625249981880188,0.002287500072270632,0.8137094974517822
15.92,-0.005459319334477186,0.0033288532868027687,0.0017310036346316338,-0.6328445076942444,-0.00015249999705702066,0.8202974796295166
15.94,-0.007589785382151604,0.004394086077809334,-0.0025299284607172012,-0.6301605105400085,0.0027754998300224543,0.8134655356407166
15.96,-0.006524552125483751,0.0001331541279796511,0.0027962366584688425,-0.6286965012550354,0.005947500001639128,0.8154175281524658
15.98,-0.006524552125483751,0.0033288532868027687,0.000665770610794425,-0.6279644966125488,0.0017994999652728438,0.8144415020942688
16,-0.0033288532868027687,0.0011983871227130294,0.000665770610794425,-0.6282085180282593,0.0000914999982342124,0.8146854639053345
16.02,-0.0011983871227130294,0.00226362026296556,-0.0003994623839389533,-0.6286965012550354,-0.001128499978221953,0.8173694610595703
16.04,-0.0033288532868027687,0.0011983871227130294,0.0017310036346316338,-0.630404531955719,0.0020435000769793987,0.8156614899635315
16.06,-0.008655018173158169,-0.0030625448562204838,0.000665770610794425,-0.627202033996582,-0.0006404999876394868,0.8129469752311707
16.08,-0.005459319334477186,0.0011983871227130294,0.000665770610794425,-0.6279644966125488,0.003995500039309263,0.8173694610595703
16.1,-0.006524552125483751,-0.001997311832383275,-0.0003994623839389533,-0.6264700293540955,0.002531500067561865,0.8171254992485046
16.12,-0.0001331541279796511,0.004394086077809334,-0.0003994623839389533,-0.6242740154266357,-0.001616499968804419,0.8109949827194214
16.14,-0.0033288532868027687,0.0033288532868027687,0.0027962366584688425,-0.6250060200691223,0.0020435000769793987,0.8159055113792419
16.16,-0.00226362026296556,0.005459319334477186,0.0027962366584688425,-0.6264700293540955,0.0052155000157654285,0.8156614899635315
16.18,-0.0033288532868027687,0.00226362026296556,0.0027962366584688425,-0.6286965012550354,0.002531500067561865,0.8159055113792419
16.2,-0.004394086077809334,0.0011983871227130294,-0.0014646954368799925,-0.6286965012550354,-0.00234850007109344,0.8146854639053345
16.22,-0.007589785382151604,-0.004127778112888336,-0.0014646954368799925,-0.6247619986534119,-0.0008844999829307199,0.8139535188674927
16.24,-0.008655018173158169,-0.005193010903894901,-0.005725627299398184,-0.6242740154266357,0.0017994999652728438,0.8183455467224121
16.26,-0.00226362026296556,-0.001997311832383275,-0.004660394508391619,-0.6274459958076477,0.0035075002815574408,0.8183455467224121
16.28,0.00719032296910882,0.006524552125483751,-0.004660394508391619,-0.6343084573745728,0.005947500001639128,0.8188335299491882
16.3,0.009320789016783237,0.023568280041217804,-0.004660394508391619,-0.6401644945144653,0.011315500363707542,0.8171254992485046
16.32,-0.0011983871227130294,0.023568280041217804,-0.012117025442421436,-0.6421164870262146,0.0052155000157654285,0.8168814778327942
16.34,-0.031024912372231483,0.013981183059513569,-0.04726971685886383,-0.6387004852294922,-0.014579000882804394,0.8322535157203674
16.36,-0.08854749798774719,-0.010519175790250301,-0.11544463038444519,-0.6374804973602295,-0.01945899985730648,0.8232255578041077
16.38,-0.14500483870506287,-0.05632419511675835,-0.16231487691402435,-0.6282085180282593,-0.02433899976313114,0.8232255578041077
16.4,-0.2248973250389099,-0.09786828607320786,-0.2219679355621338,-0.6242740154266357,-0.027754999697208405,0.8307894468307495
16.42,-0.28668084740638733,-0.13834713399410248,-0.305056095123291,-0.6257379651069641,-0.020191000774502754,0.8410679697990417
16.44,-0.33994248509407043,-0.1585865616798401,-0.3476654291152954,-0.6333324909210205,-0.013602999970316887,0.8395734429359436
16.46,-0.3974650800228119,-0.18308693170547485,-0.4114462435245514,-0.6343084573745728,-0.010187000036239624,0.8207855224609375
16.48,-0.44646579027175903,-0.16071702539920807,-0.4529903531074524,-0.6247619986534119,-0.020923001691699028,0.8278615474700928
16.5,-0.5359453558921814,-0.1351514458656311,-0.4721645414829254,-0.6120740175247192,-0.04340149834752083,0.8364015221595764
16.52,-0.61250901222229,-0.0925421193242073,-0.46790361404418945,-0.6137819886207581,-0.04657349735498428,0.8381094932556152
16.54,-0.706249475479126,-0.0925421193242073,-0.4977301359176636,-0.6296724677085876,-0.07173600047826767,0.8483880162239075
16.56,-0.789337694644928,-0.11278154700994492,-0.556317925453186,-0.6296724677085876,-0.07173600047826767,0.8483880162239075
16.58,-0.8670997023582458,-0.08402025699615479,-0.6117100715637207,-0.6301605105400085,-0.09933849424123764,0.8530240058898926
16.6,-0.9416660070419312,-0.12023817747831345,-0.6298190355300903,-0.6250060200691223,-0.13523699343204498,0.8449719548225403
16.62,-0.9406007528305054,-0.1671084314584732,-0.7384728193283081,-0.6365044713020325,-0.16235150396823883,0.8303014636039734
16.64,-0.9832100868225098,-0.24700090289115906,-0.8418003916740417,-0.6000875234603882,-0.19434599578380585,0.8266414403915405
16.66,-1.0865377187728882,-0.31411057710647583,-0.9046491384506226,-0.6000875234603882,-0.22121649980545044,0.8324975371360779
16.68,-1.1834739446640015,-0.34500235319137573,-0.9536498785018921,-0.6147580146789551,-0.2756894826889038,0.8422880172729492
16.7,-1.3431257009506226,-0.4643084406852722,-1.067496657371521,-0.6147580146789551,-0.2756894826889038,0.8422880172729492
16.72,-1.5029106140136719,-0.6537867784500122,-1.2294120788574219,-0.5888634920120239,-0.3025600016117096,0.8591240644454956
16.74,-1.614760160446167,-0.8423330187797546,-1.406240701675415,-0.597647488117218,-0.33678099513053894,0.8630279302597046
16.76,-1.6264777183532715,-0.9712262153625488,-1.519155502319336,-0.5778834819793701,-0.35999149084091187,0.8488759994506836
16.78,-1.6083687543869019,-1.108641266822815,-1.5457862615585327,-0.5495490431785583,-0.38930201530456543,0.8144415020942688
16.8,-1.614760160446167,-1.1862701177597046,-1.5543081760406494,-0.4757695198059082,-0.4530470073223114,0.8073350191116333
16.82,-1.6754783391952515,-1.3258156776428223,-1.6212846040725708,-0.41836851835250854,-0.5119120478630066,0.7707045078277588
16.84,-1.6445866823196411,-1.3215546607971191,-1.6191542148590088,-0.3841779828071594,-0.5695570111274719,0.7738764882087708
16.86,-1.5348676443099976,-1.404642939567566,-1.5330034494400024,-0.28133198618888855,-0.7102534770965576,0.7294074892997742
16.88,-1.3899959325790405,-1.453643560409546,-1.3860013484954834,-0.20145249366760254,-0.7053735256195068,0.7035130262374878
16.9,-1.2728203535079956,-1.4568393230438232,-1.2389991283416748,-0.20145249366760254,-0.7053735256195068,0.7035130262374878
16.92,-1.1706911325454712,-1.5239490270614624,-1.1218235492706299,-0.10299849510192871,-0.6980534791946411,0.6774049997329712
16.94,-1.140864610671997,-1.6539074182510376,-1.0376701354980469,-0.03925349935889244,-0.7329760193824768,0.6353760361671448
16.96,-1.1461907625198364,-1.7773412466049194,-0.9971912503242493,-0.0016469999682158232,-0.78500896692276,0.616069495677948
16.98,-1.197321891784668,-1.8316681385040283,-0.9738892912864685,0.028669999912381172,-0.7955314517021179,0.5913950204849243
17,-1.2664289474487305,-1.7581671476364136,-0.8801487684249878,0.028669999912381172,-0.8082194924354553,0.5667204856872559
17.02,-1.3420604467391968,-1.5612322092056274,-0.8684312105178833,0.059688501060009,-0.8275260329246521,0.5225260257720947
17.04,-1.340995192527771,-1.4387303590774536,-0.8141043186187744,0.03989399969577789,-0.8609845042228699,0.5220379829406738
17.06,-1.3463213443756104,-1.2310099601745605,-0.7917344570159912,0.07920850068330765,-0.850492537021637,0.4485025107860565
17.08,-1.3143644332885742,-1.0947932004928589,-0.7853430509567261,0.12074949592351913,-0.8392379283905029,0.4030574858188629
17.1,-1.173886775970459,-0.894529402256012,-0.7693645358085632,0.15201200544834137,-0.8392379283905029,0.39768949151039124
17.12,-1.0545806884765625,-0.7965279817581177,-0.7406032681465149,0.19648098945617676,-0.8507364988327026,0.3737470209598541
17.14,-0.8543168902397156,-0.6740261912345886,-0.6617760062217712,0.2470499873161316,-0.8839510083198547,0.3698430061340332
17.16,-0.7307498455047607,-0.6410039663314819,-0.6106448173522949,0.28099650144577026,-0.8912710547447205,0.3244284987449646
17.18,-0.6721620559692383,-0.6186341047286987,-0.5392742156982422,0.30908700823783875,-0.8712324500083923,0.2982900142669678
17.2,-0.6465964317321777,-0.6165035963058472,-0.41570720076560974,0.31030699610710144,-0.8575684428215027,0.27800750732421875
17.22,-0.6519225835800171,-0.5632419586181641,-0.3391435742378235,0.3064029812812805,-0.848266065120697,0.2579690217971802
17.24,-0.6529878377914429,-0.5472634434700012,-0.3061213493347168,0.2873404920101166,-0.8394820690155029,0.23475851118564606
17.26,-0.6455312371253967,-0.5067846179008484,-0.23475073277950287,0.29344049096107483,-0.8477779626846313,0.21889850497245789
17.28,-0.6295527219772339,-0.40998154878616333,-0.17083674669265747,0.30274301767349243,-0.8780950307846069,0.2071560174226761
17.3,-0.6199656128883362,-0.37482887506484985,-0.19640234112739563,0.3042069971561432,-0.8956630229949951,0.2042279988527298
17.32,-0.5987941026687622,-0.42702528834342957,-0.2198374718427658,0.3291254937648773,-0.9069175124168396,0.20520401000976562
17.34,-0.5348801612854004,-0.45046040415763855,-0.20705467462539673,0.3291254937648773,-0.9069175124168396,0.20520401000976562
17.36,-0.44646579027175903,-0.39932921528816223,-0.2006632685661316,0.3462055027484894,-0.8990790247917175,0.18174949288368225
17.38,-0.3740299344062805,-0.3599156141281128,-0.18468476831912994,0.35868000984191895,-0.8834630250930786,0.1639374941587448
17.4,-0.27496325969696045,-0.3599156141281128,-0.1367492824792862,0.35868000984191895,-0.8834630250930786,0.1639374941587448
17.42,-0.21850591897964478,-0.28108835220336914,-0.09520520269870758,0.36868399381637573,-0.8726965188980103,0.13901899755001068
17.44,-0.16524426639080048,-0.23634858429431915,-0.05792204663157463,0.3745400011539459,-0.8773630261421204,0.1424349993467331
17.46,-0.11304785311222076,-0.2118482142686844,-0.03022598661482334,0.37380799651145935,-0.889074981212616,0.12337249517440796
17.48,-0.0768299326300621,-0.13195574283599854,-0.02276935614645481,0.37209999561309814,-0.8990790247917175,0.1050724983215332
17.5,-0.037416309118270874,-0.07336792349815369,-0.02276935614645481,0.3564840257167816,-0.9110655188560486,0.10751250386238098
17.52,-0.007589785382151604,-0.028628136962652206,-0.02809552103281021,0.3488894999027252,-0.9088694453239441,0.10360850393772125
17.54,0.025299284607172012,0.047003407031297684,-0.02276935614645481,0.34937751293182373,-0.9017629623413086,0.10629250854253769
17.56,0.03595161437988281,0.08854749798774719,-0.02809552103281021,0.3577040135860443,-0.8971269726753235,0.10556049644947052
17.58,0.03808208182454109,0.10545806586742401,-0.02809552103281021,0.3757599890232086,-0.8976149559020996,0.11385650932788849
17.6,0.03914731368422508,0.10971900075674057,-0.02916075475513935,0.38311049342155457,-0.8885869979858398,0.11532049626111984
17.62,0.04340824484825134,0.09493889659643173,-0.015312724746763706,0.3791760206222534,-0.8829750418663025,0.11532049626111984
17.64,0.04660394415259361,0.09067796170711517,-0.0003994623839389533,0.3711239993572235,-0.8829750418663025,0.1184924989938736
17.66,0.07749570161104202,0.10332760214805603,0.04007939249277115,0.3735640048980713,-0.8822430372238159,0.12093250453472137
17.68,0.11903978884220123,0.12037133425474167,0.06777545064687729,0.36624401807785034,-0.8798030018806458,0.13877500593662262
17.7,0.16697527468204498,0.1374150663614273,0.09653674066066742,0.36087602376937866,-0.8824869990348816,0.13633500039577484
17.72,0.1978670358657837,0.14167599380016327,0.10825430601835251,0.3564840257167816,-0.8822430372238159,0.13877500593662262
17.74,0.2404763549566269,0.15765449404716492,0.12742850184440613,0.3567280173301697,-0.8822430372238159,0.14487500488758087
17.76,0.2820204496383667,0.17469821870326996,0.13808083534240723,0.3618520200252533,-0.8834630250930786,0.14633899927139282
17.78,0.3161078989505768,0.18961147964000702,0.1519288569688797,0.3652680218219757,-0.889074981212616,0.15097500383853912
17.8,0.34273871779441833,0.19813334941864014,0.16577689349651337,0.36624401807785034,-0.884926974773407,0.1517070084810257
17.82,0.3693695366382599,0.21624229848384857,0.19240771234035492,0.354745477437973,-0.8859030604362488,0.1668655127286911
17.84,0.39386990666389465,0.21837277710437775,0.21371237933635712,0.34474149346351624,-0.8854149580001831,0.173941507935524
17.86,0.46737098693847656,0.256721168756485,0.2657756507396698,0.3327854871749878,-0.8783390522003174,0.18641600012779236
17.88,0.5408720970153809,0.3067871034145355,0.31584158539772034,0.31543099880218506,-0.8815109729766846,0.2054480016231537
17.9,0.6195661425590515,0.37922295928001404,0.3605813682079315,0.3134790062904358,-0.8766005039215088,0.21694649755954742
17.92,0.699458658695221,0.444202184677124,0.3840165138244629,0.29734447598457336,-0.8736724853515625,0.22670650482177734
17.94,0.798525333404541,0.5358121991157532,0.41064733266830444,0.27806851267814636,-0.8756245374679565,0.24942901730537415
17.96,0.8762873411178589,0.6018566489219666,0.4458000063896179,0.299296498298645,-0.8729405403137207,0.2770315110683441
17.98,0.9359403848648071,0.6806839108467102,0.48414841294288635,0.2751404941082001,-0.880778968334198,0.29585000872612
18,1.0105066299438477,0.7732260227203369,0.5374100804328918,0.25949400663375854,-0.8800469636917114,0.30902600288391113
18.02,1.084007740020752,0.8477923274040222,0.5778889060020447,0.2643739879131317,-0.8692805171012878,0.33931249380111694
18.04,1.1670958995819092,0.9319457411766052,0.6332810521125793,0.2357955127954483,-0.865620493888855,0.35959500074386597
18.06,1.251116156578064,1.0139687061309814,0.6961297988891602,0.2277435064315796,-0.8524444699287415,0.3837814927101135
18.08,1.3608351945877075,1.0853393077850342,0.7845441102981567,0.18644650280475616,-0.8448500037193298,0.41455602645874023
18.1,1.4769456386566162,1.1854711771011353,0.8749557733535767,0.1664385050535202,-0.8343579769134521,0.45069852471351624
18.12,1.6058387756347656,1.3515143394470215,1.0102403163909912,0.1349014937877655,-0.8287460207939148,0.4743970036506653
18.14,1.67933988571167,1.5208864212036133,1.1178288459777832,0.07896450161933899,-0.8006554841995239,0.5044395327568054
18.16,1.7155578136444092,1.7019760608673096,1.1860038042068481,0.004727500025182962,-0.8040714859962463,0.5366780161857605
18.18,1.7943850755691528,2.0544350147247314,1.2584396600723267,-0.04071750119328499,-0.8013874888420105,0.5772429704666138
18.2,1.8794704675674438,2.2877211570739746,1.2903966903686523,-0.060756001621484756,-0.7798849940299988,0.6075295209884644
18.22,1.9508411884307861,2.3963749408721924,1.2925270795822144,-0.06954000145196915,-0.7193120121955872,0.6312280297279358
18.24,1.9689500331878662,2.408092498779297,1.3053098917007446,-0.11108099669218063,-0.6716709733009338,0.6988770365715027
18.26,1.939123511314392,2.2749383449554443,1.3266146183013916,-0.15942350029945374,-0.6589829921722412,0.7560339570045471
18.28,1.8071677684783936,2.071478843688965,1.331940770149231,-0.2214910089969635,-0.6599590182304382,0.7619204521179199
18.3,1.6804051399230957,1.899044156074524,1.3234188556671143,-0.30747050046920776,-0.6396765112876892,0.7646045088768005
18.32,1.5557727813720703,1.5251474380493164,1.2808095216751099,-0.4093404710292816,-0.5971595048904419,0.7772925496101379
18.34,1.5760122537612915,1.3717538118362427,1.2648310661315918,-0.4950760006904602,-0.5414665341377258,0.8212735056877136
18.36,1.4854674339294434,1.3515143394470215,1.2232869863510132,-0.5172799825668335,-0.4413350224494934,0.8349374532699585
18.38,1.2171618938446045,1.139666199684143,1.1742862462997437,-0.5554049611091614,-0.3782914876937866,0.8413119316101074
18.4,1.0051804780960083,0.8690969944000244,1.17002534866333,-0.5844715237617493,-0.36169949173927307,0.8373774886131287
18.42,1.0286155939102173,0.5912043452262878,1.1678948402404785,-0.5864235162734985,-0.31332650780677795,0.8532679677009583
18.44,0.9796149134635925,0.3728315532207489,1.0922633409500122,-0.5808115005493164,-0.2717854976654053,0.8610759973526001
18.46,0.799590528011322,0.09280842542648315,1.0038490295410156,-0.6010940074920654,-0.29889997839927673,0.8425320386886597
18.48,0.6813496947288513,-0.03928046673536301,0.9473916292190552,-0.6108539700508118,-0.25446149706840515,0.826885461807251
18.5,0.7026543617248535,-0.07443315535783768,0.9431306719779968,-0.6191499829292297,-0.2004764974117279,0.8078230023384094
18.52,0.7196980714797974,-0.011584409512579441,0.8824124336242676,-0.6164659857749939,-0.1567395031452179,0.7987949848175049
18.54,0.7431331872940063,-0.001997311832383275,0.8366073966026306,-0.6184179782867432,-0.15478749573230743,0.8041629791259766
18.56,0.7122414112091064,0.05232957378029823,0.7547175884246826,-0.6352844834327698,-0.161375492811203,0.7931829690933228
18.58,0.69200199842453,-0.03288906812667847,0.6460638046264648,-0.6443125009536743,-0.11251450330018997,0.820541501045227
18.6,0.6738930344581604,-0.15112993121147156,0.6226286888122559,-0.6003620028495789,-0.09543450176715851,0.8234695196151733
18.62,0.6398055553436279,-0.031823836266994476,0.4926702678203583,-0.6215899586677551,-0.08713849633932114,0.8410679697990417
18.64,0.5557853579521179,-0.040345702320337296,0.4127778112888336,-0.6401644945144653,-0.058560002595186234,0.8479000329971313
18.66,0.4737623929977417,-0.03608476743102074,0.34673336148262024,-0.6120740175247192,-0.02580299973487854,0.8581479787826538
18.68,0.4013265371322632,0.019307348877191544,0.2796236574649811,-0.617929995059967,-0.02946300059556961,0.856440007686615
18.7,0.33102115988731384,0.034220609813928604,0.222101092338562,-0.6457765102386475,-0.026778999716043472,0.8432639837265015
18.72,0.30758604407310486,-0.014780107885599136,0.18069015443325043,-0.6457765102386475,-0.026778999716043472,0.8432639837265015
18.74,0.22556309401988983,0.017176883295178413,0.12210233509540558,-0.6040219664573669,0.022295501083135605,0.8285934925079346
18.76,0.1978670358657837,0.015046416781842709,0.0667102187871933,-0.6081699728965759,-0.02336299978196621,0.8615639805793762
18.78,0.11903978884220123,0.031024912372231483,0.04007939249277115,-0.5995994806289673,-0.0030805000569671392,0.8346934914588928
18.8,0.1009308323264122,0.008655018173158169,0.02516612969338894,-0.5961834788322449,0.005703500006347895,0.8317655324935913
18.82,0.08388710021972656,0.025698747485876083,0.02090519852936268,-0.5995994806289673,0.009363500401377678,0.8415560722351074
18.84,0.06258244067430496,0.021437814459204674,0.0027962366584688425,-0.6067059636116028,0.014975500293076038,0.8388414978981018
18.86,0.04553871229290962,0.016111649572849274,-0.007856093347072601,-0.6000875234603882,0.008875500410795212,0.8449719548225403
18.88,0.03382114693522453,0.016111649572849274,-0.009986559860408306,-0.6047540307044983,0.0049715000204741955,0.8447279930114746
18.9,0.018907885998487473,0.012915950268507004,-0.006790860556066036,-0.5949634909629822,0.004239500034600496,0.8496079444885254
18.92,0.017842652276158333,0.00226362026296556,-0.012117025442421436,-0.604997992515564,0.005947500001639128,0.8334735035896301
18.94,0.0007989247678779066,-0.0009320789249613881,-0.013182258233428001,-0.6042659878730774,0.006679500453174114,0.8381094932556152
18.96,-0.004394086077809334,-0.006258244160562754,-0.006790860556066036,-0.6057299971580505,-0.0030805000569671392,0.8324975371360779
18.98,-0.00226362026296556,-0.011584409512579441,-0.005725627299398184,-0.6089019775390625,0.00375150004401803,0.8303014636039734
19,-0.008655018173158169,-0.006258244160562754,0.000665770610794425,-0.600849986076355,0.020831499248743057,0.8097749948501587
19.02,-0.005459319334477186,-0.005193010903894901,0.0017310036346316338,-0.6076819896697998,0.005459500011056662,0.8332294821739197
19.04,-0.00226362026296556,-0.004127778112888336,-0.0003994623839389533,-0.6064620018005371,0.008387499488890171,0.8312775492668152
19.06,0.002929390873759985,0.0011983871227130294,0.000665770610794425,-0.6096339821815491,0.005947500001639128,0.8368895053863525
19.08,0.0018641578499227762,-0.001997311832383275,0.000665770610794425,-0.606950044631958,0.0020435000769793987,0.8366455435752869
19.1,-0.0011983871227130294,-0.005193010903894901,-0.0014646954368799925,-0.6089019775390625,0.0017994999652728438,0.8361575603485107
