timestamp,gyro_x,gyro_y,gyro_z,acc_x,acc_y,acc_z
0,-0.3644428551197052,-0.18095645308494568,-0.6511237025260925,-0.004575000144541264,0.23311150074005127,1.0960785150527954
0.02,0.7101109623908997,-0.27043604850769043,-1.4925246238708496,0.12099350243806839,0.2655940055847168,1.2128324508666992
0.04,0.823025643825531,-1.457904577255249,-1.0025174617767334,-0.3651154935359955,0.03647800162434578,0.9358314871788025
0.06,0.952984094619751,-2.803027629852295,-0.1900109350681305,-0.173117995262146,0.12806950509548187,1.2064884901046753
0.08,1.5078372955322266,-3.1150076389312744,-0.20492419600486755,-0.173117995262146,0.12806950509548187,1.2064884901046753
0.1,1.531272530555725,-2.0276710987091064,-0.2091851383447647,0.054534003138542175,0.1105014979839325,1.1317330598831177
0.12,0.9252880215644836,0.5912043452262878,0.32329821586608887,0.06969249993562698,0.19574899971485138,0.7909870147705078
0.14,0.07430000603199005,1.7094327211380005,0.7078473567962646,0.2602260112762451,0.34522950649261475,0.61924147605896
0.16,-1.0950595140457153,0.36963585019111633,1.2989184856414795,0.2602260112762451,0.34522950649261475,0.61924147605896
0.18,-1.640325665473938,-1.436599850654602,2.389450788497925,-0.004330999683588743,0.2411634922027588,0.42138800024986267
0.2,-1.4869321584701538,-3.158682107925415,3.494896411895752,0.2101449966430664,0.06798449903726578,0.8698905110359192
0.22,-0.5785546898841858,-2.436587333679199,3.657876968383789,0.4492954909801483,-0.10958650708198547,1.193037986755371
0.24,0.05299534276127815,-1.0532491207122803,2.9954352378845215,0.4492954909801483,-0.10958650708198547,1.193037986755371
0.26,1.3139649629592896,-2.5761330127716064,0.9676310420036316,0.7482869625091553,0.31909099221229553,1.3669794797897339
0.28,1.3757483959197998,-4.395151615142822,1.5650936365127563,0.4539315104484558,0.20453299582004547,0.7189155220985413
0.3,1.3608351945877075,-5.49314022064209,3.3606770038604736,-0.16210749745368958,-0.26202550530433655,0.5997214913368225
0.32,1.638861060142517,-5.545336723327637,4.234035015106201,0.1466439962387085,-0.3467850089073181,0.77582848072052
0.34,2.6889145374298096,-4.614589691162109,4.908194541931152,0.44270747900009155,-0.4896774888038635,0.8097749948501587
0.36,3.731511354446411,-3.492100238800049,4.726039409637451,0.44270747900009155,-0.4896774888038635,0.8097749948501587
0.38,4.805132865905762,-3.2641403675079346,5.401264190673828,0.5965800285339355,-0.5297545194625854,0.6918010115623474
0.4,3.9456231594085693,-3.3355109691619873,5.063718318939209,0.5965800285339355,-0.5297545194625854,0.6918010115623474
0.42,3.1532227993011475,-2.919137954711914,4.637625217437744,0.9737430214881897,-0.3306505084037781,0.2677595019340515
0.44,3.887035369873047,-2.1949126720428467,4.30647087097168,1.065609097480774,-0.14185549318790436,0.7479820251464844
0.46,4.174648284912109,-1.7911893129348755,3.944291591644287,1.2429360151290894,-0.05953599885106087,0.4550905227661133
0.48,3.8561434745788574,-1.5644278526306152,3.095567226409912,1.5077370405197144,0.04696999862790108,0.12215249985456467
0.5,3.789033889770508,-2.174673318862915,2.1444473266601562,1.687991976737976,0.0894870012998581,0.1453630030155182
0.52,3.703815221786499,-2.3779995441436768,0.4159734845161438,1.687991976737976,0.0894870012998581,0.1453630030155182
0.54,2.8540256023406982,-1.8337986469268799,-0.41464194655418396,1.6039645671844482,0.014975500293076038,-0.186599001288414
0.56,1.0413984060287476,-0.8316806554794312,-0.9845415949821472,1.3528579473495483,0.01668350026011467,-0.3468460142612457
0.58,-0.40385645627975464,-0.3055887222290039,-0.671363115310669,0.29270848631858826,-0.33848899602890015,-0.5112410187721252
0.6,-0.5487281680107117,-1.3449898958206177,0.2870802879333496,0.15957599878311157,-0.7122055292129517,-0.01659199967980385
0.62,-0.026763979345560074,-2.901028871536255,1.7664226293563843,-0.11083699762821198,-0.39223000407218933,0.053771499544382095
0.64,0.7250242233276367,-3.6432301998138428,1.6311380863189697,0.9104859828948975,-0.15429949760437012,0.2252425104379654
0.66,-0.26218047738075256,-2.0457799434661865,0.9814790487289429,1.6303470134735107,-0.32552647590637207,0.07991000264883041
0.68,-0.828751266002655,-0.27043604850769043,0.6183677911758423,1.521644949913025,-0.40174600481987,-0.011223999783396721
0.7,-0.8191642165184021,-0.6857437491416931,0.8344769477844238,0.9087780714035034,-0.3433689773082733,-0.06325700134038925
0.72,-0.5806851387023926,-1.9296696186065674,1.1572425365447998,0.7470670342445374,-0.389057993888855,-0.1836709976196289
0.74,-0.4059869349002838,-2.0223448276519775,1.5342018604278564,0.7468230128288269,-0.6958574652671814,-0.1446004956960678
0.76,-0.36018192768096924,-1.2544450759887695,1.5544413328170776,0.9097540378570557,-0.7977275252342224,-0.12724599242210388
0.78,-0.24300628900527954,-0.9893351793289185,0.9697614908218384,1.0445945262908936,-0.7913529872894287,-0.036630500108003616
0.8,-0.12370018661022186,-0.4461994767189026,0.4447347819805145,0.9090220332145691,-0.7617985010147095,0.03983300179243088
0.82,-0.2366148829460144,-0.11704248189926147,-0.0025299284607172012,1.0724409818649292,-0.6885374784469604,-0.10720749944448471
0.84,-0.6083812117576599,0.7030537724494934,-0.4860125780105591,1.0284600257873535,-0.6357724666595459,-0.20224550366401672
0.86,-1.2122352123260498,1.1002525091171265,-0.02170412242412567,0.6720674633979797,-0.26666149497032166,-0.03858250007033348
0.88,-1.8075672388076782,0.45485448837280273,1.369223952293396,0.8606489896774292,-0.20974849164485931,-0.09232349693775177
0.9,-2.5550944805145264,-1.5495145320892334,3.3010239601135254,0.8616249561309814,-0.06905199587345123,-0.1311500072479248
0.92,-0.9746882319450378,-0.11278154700994492,2.7514967918395996,0.6710914969444275,-0.7319999933242798,-0.4257495105266571
0.94,1.7879936695098877,-0.43874284625053406,0.735543429851532,0.4617394804954529,-0.316742479801178,-0.17708300054073334
0.96,1.4066401720046997,-1.289597749710083,-0.00359516148455441,0.9356484413146973,-0.24393901228904724,-0.32168349623680115
0.98,0.06364767253398895,0.067242830991745,0.01770949922502041,0.9356484413146973,-0.24393901228904724,-0.32168349623680115
1,-0.3846822679042816,0.6615096926689148,-0.05898727849125862,0.970570981502533,-0.39491400122642517,-0.023423999547958374
1.02,-0.5007926821708679,1.7967817783355713,-1.4467196464538574,0.970570981502533,-0.39491400122642517,-0.023423999547958374
1.04,-2.3666815757751465,0.6412702798843384,-0.22942456603050232,0.800320029258728,-0.32625851035118103,-0.15997250378131866
1.06,-1.7979801893234253,-1.8082330226898193,1.148720622062683,0.6845420002937317,-0.18556199967861176,-0.6485215425491333
1.08,-2.2079617977142334,-2.5111536979675293,0.8154358863830566,0.7289804816246033,-0.6054860353469849,-0.5855085253715515
1.1,-1.785197377204895,-1.80290687084198,1.4097027778625488,0.7289804816246033,-0.6054860353469849,-0.5855085253715515
1.12,-0.9331441521644592,-0.9424648880958557,1.7089000940322876,0.6337289810180664,-0.9142375588417053,-0.04883049800992012
1.14,0.5536548495292664,-1.346055030822754,2.904890537261963,0.7194644808769226,-0.33726900815963745,-0.31655949354171753
1.16,1.625012993812561,-1.732601523399353,2.2286007404327393,-0.03534949943423271,-0.23247100412845612,-0.12236599624156952
1.18,1.3789441585540771,-1.1692264080047607,1.2531135082244873,1.0294359922409058,-0.7295600175857544,-0.5569300055503845
1.2,0.6888062953948975,-0.030758604407310486,1.1433944702148438,0.5680015087127686,-1.1072109937667847,-0.17830300331115723
1.22,0.3448691964149475,0.5422036051750183,1.620485782623291,0.5167005062103271,-1.256935477256775,-0.34099000692367554
1.24,0.14034445583820343,0.26950395107269287,1.1146332025527954,0.6175945401191711,-1.0896124839782715,-0.44944801926612854
1.26,-0.10985215753316879,0.7083799839019775,-0.19746756553649902,0.7758894562721252,-0.8722085356712341,-0.4946185052394867
1.28,-0.2366148829460144,0.8776188492774963,-0.6820154190063477,0.5425949692726135,-0.9689545631408691,-0.32558751106262207
1.3,-0.6529878377914429,1.1780145168304443,-0.7129071950912476,0.6190584897994995,-0.9897249937057495,-0.4367295205593109
1.32,-0.037416309118270874,0.6892057657241821,-0.37642672657966614,0.2340874969959259,-0.8292340040206909,-0.41278699040412903
1.34,0.4822842478752136,-0.36630702018737793,0.15405932068824768,0.27806851267814636,-0.9970450401306152,-0.31241148710250854
1.36,0.3054555654525757,-0.1138467788696289,0.08268871158361435,0.27806851267814636,-0.9970450401306152,-0.31241148710250854
1.38,-0.08535179495811462,0.5645735263824463,-0.23581595718860626,0.5118204951286316,-0.835334062576294,-0.4132750332355499
1.4,-0.12689588963985443,0.6029219031333923,-0.12822742760181427,0.5010845065116882,-0.6174419522285461,-0.32168349623680115
1.42,-0.23128871619701385,0.8776188492774963,0.005991935729980469,0.4224250018596649,-0.6628869771957397,-0.3944869935512543
1.44,-0.5593804717063904,1.0171643495559692,0.9953271150588989,0.4224250018596649,-0.6628869771957397,-0.3944869935512543
1.46,-0.9597749710083008,1.6987804174423218,1.3809415102005005,0.2853884994983673,-0.7183359861373901,-0.3803044855594635
1.48,-0.4816184937953949,0.6306179761886597,1.216895580291748,0.5951160192489624,-0.9376920461654663,-0.35367798805236816
1.5,0.17123620212078094,-0.4312862157821655,1.32448410987854,0.6432449817657471,-0.6890254616737366,-0.1294419914484024
1.52,0.22236739099025726,-0.3386109471321106,1.3425930738449097,0.4568594992160797,-0.9479399919509888,-0.37762051820755005
1.54,0.1328878253698349,0.23648172616958618,1.2062432765960693,0.4568594992160797,-0.9479399919509888,-0.37762051820755005
1.56,0.2926727831363678,0.024633513763546944,1.2392654418945312,0.28099650144577026,-0.8519564867019653,-0.27428650856018066
1.58,0.7356765866279602,-0.7805495262145996,1.5959854125976562,0.28099650144577026,-0.8519564867019653,-0.27428650856018066
1.6,0.6026555895805359,-0.7134398221969604,1.6151596307754517,0.38015198707580566,-0.8497605323791504,-0.3492859899997711
1.62,-0.2909417748451233,-0.1692388951778412,1.7504441738128662,0.4131529629230499,-0.8231340050697327,-0.3785965144634247
1.64,-0.38255181908607483,0.026763979345560074,1.9166204929351807,0.2912445068359375,-0.9574559926986694,-0.3092394769191742
1.66,0.03275591507554054,0.2748301327228546,2.0242090225219727,0.17034250497817993,-1.0459059476852417,-0.1655845046043396
1.68,0.3896089792251587,0.22050324082374573,1.6982477903366089,0.0760364979505539,-0.8949310183525085,-0.31411948800086975
1.7,0.7452636361122131,-0.3577851355075836,1.2595049142837524,0.20282499492168427,-0.6826509833335876,-0.2088335156440735
1.72,0.5994598865509033,-1.1159647703170776,1.1018503904342651,-0.014822999946773052,-0.8973709940910339,-0.40327101945877075
1.74,0.24260681867599487,-1.137269377708435,0.820762038230896,0.11928550899028778,-0.9811544418334961,-0.3698124885559082
1.76,-0.15033100545406342,-0.9882699251174927,0.6886731386184692,0.019123500213027,-1.0539579391479492,-0.3964390158653259
1.78,-0.2920069992542267,-0.1894783228635788,0.3094501793384552,0.018147500231862068,-1.0656700134277344,-0.30530500411987305
1.8,-0.34100770950317383,-0.1692388951778412,-0.09733566641807556,-0.05413749814033508,-0.9972890019416809,-0.35660600662231445
1.82,-0.4070521593093872,-0.020106272771954536,-0.41570720076560974,-0.0516975000500679,-0.9648065567016602,-0.2525705099105835
1.84,-0.32715970277786255,-0.2864145338535309,-0.8705616593360901,-0.07441999763250351,-0.9691985249519348,-0.3138754963874817
1.86,0.08921326696872711,-0.19586972892284393,-1.228346824645996,0.10095499455928802,-0.933788001537323,-0.23472799360752106
1.88,0.3267602324485779,-0.38761165738105774,-1.6894595623016357,0.027175499126315117,-1.0766805410385132,-0.41574549674987793
1.9,0.10199606418609619,-0.8721595406532288,-1.903571367263794,0.1407879889011383,-1.104038953781128,-0.36200448870658875
1.92,0.2298240214586258,-0.2651098668575287,-0.9461932182312012,0.1407879889011383,-1.104038953781128,-0.36200448870658875
1.94,0.4844147264957428,-3.3866419792175293,-0.36364391446113586,0.008875500410795212,-0.6369925141334534,0.6844810247421265
1.96,0.9828106164932251,-1.9967793226242065,0.004926702938973904,0.008875500410795212,-0.6369925141334534,0.6844810247421265
1.98,-0.25898477435112,-0.04673709720373154,0.013448567129671574,0.28514450788497925,-0.9907009601593018,-0.541527509689331
2,0.2298240214586258,0.20665520429611206,-0.12396649271249771,0.07530450075864792,-0.9122855067253113,-0.296764999628067
2.02,0.38108712434768677,0.18641577661037445,-0.1665758192539215,0.07530450075864792,-0.9122855067253113,-0.296764999628067
2.04,0.10199606418609619,0.24713405966758728,-0.12822742760181427,0.08973100036382675,-0.9279015064239502,-0.32558751106262207
2.06,-0.09600412845611572,0.6071828007698059,-0.06431344151496887,0.10315100103616714,-0.9748104810714722,-0.2974970042705536
2.08,-0.061916667968034744,0.7732260227203369,-0.01637795753777027,0.09827099740505219,-0.9188735485076904,-0.3138754963874817
2.1,0.1126483902335167,0.7316819429397583,0.03901416063308716,0.09827099740505219,-0.9188735485076904,-0.3138754963874817
2.12,0.15099677443504333,0.7019885778427124,0.11890663951635361,0.1261174976825714,-0.8956630229949951,-0.31631550192832947
2.14,0.27456381916999817,0.8445966243743896,0.14660269021987915,0.20575299859046936,-0.8922470211982727,-0.2611105144023895
2.16,0.272433340549469,0.8925321102142334,0.07203638553619385,0.18059049546718597,-0.9264375567436218,-0.211029514670372
2.18,0.3107817471027374,0.4378107786178589,-0.004660394508391619,0.18791049718856812,-0.9071614742279053,-0.20785750448703766
2.2,0.36084768176078796,0.12995843589305878,-0.07816147059202194,0.21575698256492615,-0.9088694453239441,-0.276482492685318
2.22,0.4183702766895294,-0.21823962032794952,-0.14207544922828674,0.22505950927734375,-0.9139935374259949,-0.2799290120601654
2.24,0.4322183132171631,-0.5174369215965271,-0.2102503627538681,0.2357955127954483,-0.9149695038795471,-0.25745052099227905
2.26,0.41410934925079346,-0.8061150908470154,-0.27842527627944946,0.24360351264476776,-0.9017629623413086,-0.2408280074596405
2.28,0.3789566457271576,-0.9616391062736511,-0.2975994646549225,0.24506749212741852,-0.9257054924964905,-0.2198135107755661
2.3,0.2617810070514679,-0.8114412426948547,-0.2656424939632416,0.21673299372196198,-0.9369600415229797,-0.21420150995254517
2.32,0.1861494779586792,-0.6037208437919617,-0.20705467462539673,0.23018349707126617,-0.9789584875106812,-0.18342699110507965
2.34,0.08175663650035858,-0.16071702539920807,-0.17190198600292206,0.22749949991703033,-0.9994849562644958,-0.20346549153327942
2.36,0.1541924774646759,0.00226362026296556,-0.1665758192539215,0.23335549235343933,-0.9496479630470276,-0.19099099934101105
2.38,0.3161078989505768,0.14274121820926666,-0.15272778272628784,0.23335549235343933,-0.9496479630470276,-0.19099099934101105
2.4,0.3683043122291565,-0.0009320789249613881,-0.13355359435081482,0.2113649845123291,-0.9203374981880188,-0.2054174840450287
2.42,0.3043903410434723,-0.052063263952732086,-0.13142313063144684,0.2177089899778366,-0.9108214974403381,-0.19391900300979614
2.44,0.2298240214586258,-0.0712374597787857,-0.11331415921449661,0.21258501708507538,-0.9183855652809143,-0.18635500967502594
2.46,0.19041040539741516,-0.04993279650807381,-0.05685681104660034,0.20746099948883057,-0.9196054935455322,-0.18049900233745575
2.48,0.1968017965555191,-0.0030625448562204838,-0.04513924941420555,0.21502500772476196,-0.9235095381736755,-0.1802549958229065
2.5,0.22449785470962524,0.013981183059513569,-0.05898727849125862,0.2323794960975647,-0.9506240487098694,-0.1538725048303604
2.52,0.23088926076889038,0.0001331541279796511,-0.06005251035094261,0.2399434894323349,-0.9484279751777649,-0.1538725048303604
2.54,0.22130216658115387,0.012915950268507004,-0.03235645219683647,0.23335549235343933,-0.9396439790725708,-0.15899650752544403
2.56,0.23408496379852295,0.007589785382151604,-0.02703028731048107,0.21404899656772614,-0.9286335110664368,-0.1643645018339157
2.58,0.2404763549566269,0.020372580736875534,-0.03661738336086273,0.21404899656772614,-0.9286335110664368,-0.1643645018339157
2.6,0.26817241311073303,0.03528584539890289,-0.039813082665205,0.20526500046253204,-0.9303414821624756,-0.16046050190925598
2.62,0.28841185569763184,0.06511236727237701,-0.03661738336086273,0.21112099289894104,-0.931835949420929,-0.15070050954818726
2.64,0.3043903410434723,0.0874822586774826,-0.03661738336086273,0.21624499559402466,-0.9479399919509888,-0.1475284993648529
2.66,0.2809551954269409,0.12143656611442566,-0.03235645219683647,0.23921151459217072,-0.9484279751777649,-0.1352979987859726
2.68,0.25538963079452515,0.1608501821756363,-0.0238345880061388,0.248758003115654,-0.9352520108222961,-0.12065799534320831
2.7,0.2511286735534668,0.20026381313800812,-0.02809552103281021,0.2411634922027588,-0.9259494543075562,-0.11452750116586685
2.72,0.3011946380138397,0.2684387266635895,-0.03448691964149475,0.23262351751327515,-0.9276575446128845,-0.10623149573802948
2.74,0.3768261969089508,0.3430050313472748,-0.0504654161632061,0.22579149901866913,-0.9481840133666992,-0.07252899557352066
2.76,0.46843621134757996,0.4250279664993286,-0.06857437640428543,0.22579149901866913,-0.9481840133666992,-0.07252899557352066
2.78,0.48761042952537537,0.46444159746170044,-0.06537867337465286,0.22383949160575867,-0.9474520087242126,-0.06005449965596199
2.8,0.4332835376262665,0.47402870655059814,-0.08135717362165451,0.23457549512386322,-0.9667584896087646,-0.06350100040435791
2.82,0.34913012385368347,0.46550682187080383,-0.06857437640428543,0.2533940076828003,-0.9721264839172363,-0.05737049877643585
2.84,0.3043903410434723,0.41117995977401733,-0.04940018057823181,0.2917324900627136,-0.9464760422706604,-0.0332145020365715
2.86,0.29906415939331055,0.27376487851142883,-0.03555215150117874,0.2917324900627136,-0.9464760422706604,-0.0332145020365715
2.88,0.30758604407310486,0.23754696547985077,-0.01744319126009941,0.29100051522254944,-0.937936007976532,0.0017385000828653574
2.9,0.2798899710178375,0.1374150663614273,0.02942706272006035,0.2690100073814392,-0.931835949420929,0.01711050048470497
2.92,0.27562904357910156,0.1384802907705307,0.06457975506782532,0.267302006483078,-0.9330560564994812,0.0012504999758675694
2.94,0.25645485520362854,0.10133028775453568,0.0880148783326149,0.267302006483078,-0.9330560564994812,0.0012504999758675694
2.96,0.22662831842899323,0.10545806586742401,0.08588441461324692,0.26364201307296753,-0.9401319622993469,0.023973001167178154
2.98,0.21597599983215332,0.10133028775453568,0.07097115367650986,0.2602260112762451,-0.9542840719223022,0.024948999285697937
3,0.1968017965555191,0.09706936031579971,0.04114462435245514,0.2543700039386749,-0.9576999545097351,0.024948999285697937
3.02,0.1754971444606781,0.10439283400774002,0.04647079110145569,0.25144198536872864,-0.9618784785270691,0.0269009992480278
3.04,0.16910573840141296,0.1171756312251091,0.05073172226548195,0.23311150074005127,-0.9626104831695557,0.046664997935295105
3.06,0.15632294118404388,0.12995843589305878,0.05818835273385048,0.22798749804496765,-0.9581879377365112,0.056455500423908234
3.08,0.13608351349830627,0.12356702983379364,0.06777545064687729,0.2299395054578781,-0.9579439759254456,0.05669950321316719
3.1,0.12969212234020233,0.11291470378637314,0.06351451575756073,0.24067549407482147,-0.9552600383758545,0.06523949652910233
3.12,0.11584409326314926,0.07576470077037811,0.0560578890144825,0.24729400873184204,-0.961390495300293,0.07255949825048447
3.14,0.09773512929677963,0.0555252730846405,0.05499265342950821,0.24680599570274353,-0.959926426410675,0.07722600549459457
3.16,0.07536523789167404,0.037416309118270874,0.05286218971014023,0.23945550620555878,-0.9596824645996094,0.0840580016374588
3.18,0.04873441159725189,0.018242115154862404,0.05073172226548195,0.23896749317646027,-0.9594384431838989,0.07844600081443787
3.2,0.0370168462395668,0.015046416781842709,0.0454055592417717,0.23847949504852295,-0.9594384431838989,0.07991000264883041
3.22,0.025299284607172012,0.004394086077809334,0.03368799388408661,0.23969949781894684,-0.961390495300293,0.06865549832582474
3.24,0.0050598569214344025,-0.004127778112888336,0.02410089783370495,0.24729400873184204,-0.9618784785270691,0.07795799523591995
3.26,-0.020372580736875534,-0.017975807189941406,0.01983996480703354,0.23725950717926025,-0.961390495300293,0.07917799800634384
3.28,-0.04274247586727142,-0.030758604407310486,0.02090519852936268,0.23774749040603638,-0.9562360048294067,0.07820200175046921
3.3,-0.05659050494432449,-0.037150003015995026,0.01770949922502041,0.2335994839668274,-0.9618784785270691,0.07255949825048447
3.32,-0.061916667968034744,-0.033954303711652756,0.015579032711684704,0.2328675091266632,-0.9645625352859497,0.06963150203227997
3.34,-0.07363422960042953,-0.045671865344047546,0.009187635034322739,0.2328675091266632,-0.9645625352859497,0.06963150203227997
3.36,-0.08428656309843063,-0.05312849581241608,0.0027962366584688425,0.2299395054578781,-0.9589504599571228,0.06694750487804413
3.38,-0.09600412845611572,-0.06591129302978516,-0.006790860556066036,0.2299395054578781,-0.9589504599571228,0.06694750487804413
3.4,-0.11624355614185333,-0.06910699605941772,-0.011051792651414871,0.23164750635623932,-0.9596824645996094,0.06401950120925903
3.42,-0.13861344754695892,-0.07762885838747025,-0.02063889056444168,0.2294515073299408,-0.960170567035675,0.06401950120925903
3.44,-0.13754820823669434,-0.0925421193242073,-0.03129122033715248,0.23091550171375275,-0.96236652135849,0.05694350227713585
3.46,-0.14287437498569489,-0.08615072071552277,-0.04087831825017929,0.23603950440883636,-0.9650505185127258,0.06084749847650528
3.48,-0.19187510013580322,-0.10745538026094437,-0.039813082665205,0.23750349879264832,-0.9630984663963318,0.04739700257778168
3.5,-0.19933173060417175,-0.1138467788696289,-0.04087831825017929,0.23750349879264832,-0.9630984663963318,0.04739700257778168
3.52,-0.18548369407653809,-0.11704248189926147,-0.04620448127388954,0.2357955127954483,-0.9579439759254456,0.037636999040842056
3.54,-0.1822880059480667,-0.11597724258899689,-0.04513924941420555,0.23433150351047516,-0.9542840719223022,0.035196997225284576
3.56,-0.20039696991443634,-0.12982527911663055,-0.04833494871854782,0.23433150351047516,-0.9542840719223022,0.035196997225284576
3.58,-0.2153102308511734,-0.1255643367767334,-0.05472634732723236,0.2370155155658722,-0.9630984663963318,0.026169002056121826
3.6,-0.23341917991638184,-0.12769481539726257,-0.06431344151496887,0.24287149310112,-0.9652945399284363,0.017842499539256096
3.62,-0.25472384691238403,-0.12662957608699799,-0.08029194176197052,0.2370155155658722,-0.9621224999427795,0.016622500494122505
3.64,-0.27602851390838623,-0.12130340933799744,-0.08348763734102249,0.23799151182174683,-0.9564799666404724,0.010522499680519104
3.66,-0.2877460718154907,-0.12023817747831345,-0.07816147059202194,0.23896749317646027,-0.9542840719223022,0.00539849977940321
3.68,-0.3122464418411255,-0.11065108329057693,-0.07816147059202194,0.2416515052318573,-0.9579439759254456,-0.00045750002027489245
3.7,-0.3143768906593323,-0.10532491654157639,-0.07709623873233795,0.24900199472904205,-0.9562360048294067,-0.00878399983048439
3.72,-0.3207682967185974,-0.10852061212062836,-0.08455286920070648,0.2621780037879944,-0.957211971282959,-0.024156000465154648
3.74,-0.3207682967185974,-0.13089050352573395,-0.09520520269870758,0.26193398237228394,-0.9459880590438843,-0.029767999425530434
3.76,-0.32396399974823,-0.15006470680236816,-0.09520520269870758,0.2702299952507019,-0.9411080479621887,-0.05663849785923958
3.78,-0.30478981137275696,-0.17563030123710632,-0.07709623873233795,0.27806851267814636,-0.9293654561042786,-0.07057700306177139
3.8,-0.26324570178985596,-0.18734785914421082,-0.0611177459359169,0.27343249320983887,-0.9183855652809143,-0.08546099811792374
3.82,-0.19720126688480377,-0.1671084314584732,-0.05472634732723236,0.27587249875068665,-0.9205814599990845,-0.10183950513601303
3.84,-0.14926578104496002,-0.14047759771347046,-0.04833494871854782,0.2685219943523407,-0.9276575446128845,-0.10940349847078323
3.86,-0.13648298382759094,-0.11278154700994492,-0.04194355010986328,0.2651059925556183,-0.9335440397262573,-0.11553400754928589
3.88,-0.12689588963985443,-0.07975932210683823,-0.03448691964149475,0.2585180103778839,-0.9320799708366394,-0.108427494764328
3.9,-0.11411308497190475,-0.05312849581241608,-0.02489982172846794,0.25656598806381226,-0.926925539970398,-0.1130634993314743
3.92,-0.10772168636322021,-0.025432437658309937,-0.02276935614645481,0.2604700028896332,-0.9166774749755859,-0.10867150127887726
3.94,-0.07256899774074554,0.009720250964164734,-0.0025299284607172012,0.2616899907588959,-0.9122855067253113,-0.10232749581336975
3.96,-0.025698747485876083,0.034220609813928604,0.011318100616335869,0.26071399450302124,-0.9154574871063232,-0.09964349865913391
3.98,0.024234050884842873,0.067242830991745,0.02197043038904667,0.2660819888114929,-0.9244855046272278,-0.10208350419998169
4,0.04447348043322563,0.06937330216169357,0.02729659713804722,0.26876598596572876,-0.9323239326477051,-0.09842350333929062
4.02,0.03382114693522453,0.05659050494432449,0.03368799388408661,0.2744084894657135,-0.9467200040817261,-0.093299500644207
4.04,-0.012915950268507004,0.019307348877191544,0.02836182899773121,0.27758049964904785,-0.9604145288467407,-0.0798489972949028
4.06,-0.0778951644897461,-0.024367205798625946,0.014513799920678139,0.2783125042915344,-0.9559919834136963,-0.07814100384712219
4.08,-0.1205044835805893,-0.020106272771954536,-0.0003994623839389533,0.26339802145957947,-0.942084014415741,-0.07130900025367737
4.1,-0.12476541846990585,-0.004127778112888336,-0.02489982172846794,0.26339802145957947,-0.942084014415741,-0.07130900025367737
4.12,-0.13222205638885498,0.005459319334477186,-0.0930747389793396,0.24067549407482147,-0.948915958404541,-0.09061549603939056
4.14,-0.14500483870506287,-0.014780107885599136,-0.11970555782318115,0.2568099796772003,-0.9648065567016602,-0.09183549880981445
4.16,-0.17589659988880157,-0.05632419511675835,-0.10905323177576065,0.2568099796772003,-0.9648065567016602,-0.09183549880981445
4.18,-0.2163754552602768,-0.06804175674915314,-0.07816147059202194,0.271450012922287,-0.9667584896087646,-0.0979354977607727
4.2,-0.2259625494480133,-0.059519894421100616,-0.05685681104660034,0.274896502494812,-0.9584320187568665,-0.10964750498533249
4.22,-0.21104928851127625,-0.040345702320337296,-0.05366111174225807,0.28221648931503296,-0.9464760422706604,-0.11821800470352173
4.24,-0.19613602757453918,-0.041410934180021286,-0.05792204663157463,0.29319649934768677,-0.933788001537323,-0.14216050505638123
4.26,-0.22383208572864532,-0.054193731397390366,-0.04726971685886383,0.28929251432418823,-0.9259494543075562,-0.1441124975681305
4.28,-0.235549658536911,-0.07549838721752167,-0.05472634732723236,0.2917324900627136,-0.9142375588417053,-0.14679649472236633
4.3,-0.237680122256279,-0.061650361865758896,-0.06750914454460144,0.2831924855709076,-0.9098455309867859,-0.13749399781227112
4.32,-0.23448441922664642,-0.09041165560483932,-0.06963960826396942,0.2924644947052002,-0.9093575477600098,-0.13676200807094574
4.34,-0.25046291947364807,-0.10852061212062836,-0.04300878196954727,0.2924644947052002,-0.9093575477600098,-0.13676200807094574
4.36,-0.3559209704399109,-0.16497796773910522,0.04327509179711342,0.2790444791316986,-0.9066734910011292,-0.17683899402618408
4.38,-0.5402063131332397,-0.2842840552330017,0.05712312087416649,0.2790444791316986,-0.9066734910011292,-0.17683899402618408
4.4,-0.696662425994873,-0.5216978788375854,0.05073172226548195,0.29026851058006287,-0.9648065567016602,-0.22030149400234222
4.42,-0.613574206829071,-0.34393709897994995,0.05712312087416649,0.29026851058006287,-0.9648065567016602,-0.22030149400234222
4.44,-0.054460037499666214,-0.038215234875679016,0.007057168986648321,0.20916898548603058,-0.835334062576294,-0.23058000206947327
4.46,0.2191716879606247,0.17789392173290253,-0.02170412242412567,0.27465248107910156,-0.9088694453239441,-0.22667601704597473
4.48,0.27882474660873413,0.2556559145450592,-0.02489982172846794,0.27465248107910156,-0.9088694453239441,-0.22667601704597473
4.5,0.27669426798820496,0.1384802907705307,-0.013182258233428001,0.2980765104293823,-0.8917590379714966,-0.23009200394153595
4.52,0.20958459377288818,0.028894444927573204,0.012383334338665009,0.33717748522758484,-0.9166774749755859,-0.21395748853683472
4.54,0.12756165862083435,-0.10639014840126038,0.02090519852936268,0.32470300793647766,-0.9298534989356995,-0.20907750725746155
4.56,0.05406057462096214,-0.14899946749210358,0.03262276202440262,0.3012790083885193,-0.933788001537323,-0.19391900300979614
4.58,0.09347419440746307,-0.042476166039705276,0.03368799388408661,0.2575419843196869,-0.9200934767723083,-0.1958709955215454
4.6,0.10199606418609619,0.004394086077809334,0.0347532257437706,0.2096569985151291,-0.8998110294342041,-0.1819629967212677
4.62,0.09347419440746307,0.033155377954244614,0.013448567129671574,0.21356098353862762,-0.9242414832115173,-0.20273350179195404
4.64,0.04234301298856735,0.007589785382151604,-0.013182258233428001,0.22408351302146912,-0.9394000172615051,-0.18440300226211548
4.66,-0.10665645450353622,-0.1149120107293129,-0.06750914454460144,0.2655940055847168,-1.0048530101776123,-0.20639349520206451
4.68,-0.036351077258586884,0.08641702681779861,-0.014247491955757141,0.33229750394821167,-0.9950929880142212,-0.16460849344730377
4.7,0.03595161437988281,0.033155377954244614,-0.03555215150117874,0.27416449785232544,-0.8558605313301086,-0.13773800432682037
4.72,-0.0011983871227130294,0.012915950268507004,0.0017310036346316338,0.335469514131546,-0.9066734910011292,-0.18708699941635132
4.74,-0.010785484686493874,0.033155377954244614,0.03262276202440262,0.2980765104293823,-0.8514685034751892,-0.1702509969472885
4.76,-0.005459319334477186,-0.004127778112888336,0.03368799388408661,0.2768484950065613,-0.8648884892463684,-0.1726910024881363
4.78,-0.12583065032958984,0.029959678649902344,0.004926702938973904,0.26876598596572876,-0.8956630229949951,-0.20200151205062866
4.8,-0.235549658536911,0.1171756312251091,-0.008921326138079166,0.2416515052318573,-0.8990790247917175,-0.2151774913072586
4.82,-0.34739911556243896,-0.007323476951569319,-0.02170412242412567,0.23335549235343933,-0.9545280337333679,-0.22298550605773926
4.84,-1.173886775970459,0.4399412274360657,-0.06431344151496887,0.21282900869846344,-0.9748104810714722,-0.3045729994773865
4.86,-1.9373925924301147,0.682814359664917,0.04434032365679741,0.2399434894323349,-1.042978048324585,-0.3378179967403412
4.88,-1.493323564529419,0.14487169682979584,-0.005725627299398184,0.2853884994983673,-0.965538501739502,-0.07326100021600723
4.9,-0.5007926821708679,-0.09467258304357529,0.007057168986648321,0.28294849395751953,-0.9071614742279053,-0.14386850595474243
4.92,0.1659100502729416,0.010785484686493874,-0.008921326138079166,0.33010151982307434,-0.9010310173034668,-0.30188900232315063
4.94,0.4929365813732147,0.03209014609456062,-0.00359516148455441,0.3303455114364624,-0.8407019972801208,-0.28944501280784607
4.96,0.5962641835212708,0.0011983871227130294,-0.04833494871854782,0.32470300793647766,-0.8729405403137207,-0.28310099244117737
4.98,0.5557853579521179,0.007589785382151604,-0.1143793985247612,0.30201098322868347,-0.8734285235404968,-0.2879810035228729
5,0.4109136462211609,-0.03288906812667847,-0.09946613013744354,0.28392449021339417,-0.8956630229949951,-0.26867449283599854
5.02,0.2809551954269409,-0.03288906812667847,-0.0504654161632061,0.26925399899482727,-0.9169214963912964,-0.2479040026664734
5.04,0.17230144143104553,-0.035019535571336746,0.0017310036346316338,0.271450012922287,-0.9413520693778992,-0.2466839998960495
5.06,0.13821399211883545,-0.037150003015995026,0.03688369318842888,0.28050851821899414,-0.9232655167579651,-0.240339994430542
5.08,0.07856093347072601,-0.05312849581241608,0.06884068250656128,0.27758049964904785,-0.9049655199050903,-0.24570800364017487
5.1,0.0476691760122776,-0.042476166039705276,0.07523208111524582,0.27538448572158813,-0.8883429765701294,-0.23106801509857178
5.12,0.026364516466856003,-0.009453942999243736,0.06138405203819275,0.2783125042915344,-0.8800469636917114,-0.22030149400234222
5.14,0.00719032296910882,0.037416309118270874,0.03581846132874489,0.27880048751831055,-0.8902950286865234,-0.2122495025396347
5.16,-0.019307348877191544,0.09174319356679916,0.000665770610794425,0.2812405228614807,-0.9074054956436157,-0.2163975089788437
5.18,-0.027829213067889214,0.11930610239505768,-0.014247491955757141,0.27169400453567505,-0.9196054935455322,-0.2105415016412735
5.2,0.024234050884842873,0.10332760214805603,-0.03235645219683647,0.2849005162715912,-0.9364719390869141,-0.23179998993873596
5.22,0.06151720881462097,0.09600412845611572,-0.0185084231197834,0.2844125032424927,-0.921313464641571,-0.23424001038074493
5.24,0.10732222348451614,0.08109086751937866,0.004926702938973904,0.290756493806839,-0.9157015085220337,-0.23863200843334198
5.26,0.1318225860595703,0.06511236727237701,0.03262276202440262,0.29563650488853455,-0.9193615317344666,-0.24424400925636292
5.28,0.12117026001214981,0.041677240282297134,0.03794892504811287,0.2917324900627136,-0.9139935374259949,-0.24570800364017487
5.3,0.07536523789167404,0.016111649572849274,0.03262276202440262,0.28758448362350464,-0.9113094806671143,-0.23765601217746735
5.32,0.030625449493527412,-0.012649642303586006,0.03262276202440262,0.28002050518989563,-0.9074054956436157,-0.23082399368286133
5.34,0.05086487531661987,-0.006258244160562754,0.04966649040579796,0.2853884994983673,-0.8971269726753235,-0.20956549048423767
5.36,0.12117026001214981,0.015046416781842709,0.05286218971014023,0.28294849395751953,-0.895175039768219,-0.20980948209762573
5.38,0.16910573840141296,0.017176883295178413,0.0454055592417717,0.2831924855709076,-0.9076494574546814,-0.198341503739357
5.4,0.16058388352394104,0.0033288532868027687,0.03688369318842888,0.28636449575424194,-0.9200934767723083,-0.21566550433635712
5.42,0.1328878253698349,-0.010519175790250301,0.03901416063308716,0.28270450234413147,-0.9200934767723083,-0.20102550089359283
5.44,0.12330072373151779,0.00226362026296556,0.0560578890144825,0.2878285050392151,-0.9222895503044128,-0.1900150030851364
5.46,0.1424749195575714,0.018242115154862404,0.07310161739587784,0.2814845144748688,-0.921313464641571,-0.20248949527740479
5.48,0.15632294118404388,0.066177599132061,0.11145000159740448,0.2814845144748688,-0.921313464641571,-0.20248949527740479
5.5,0.13821399211883545,0.058720968663692474,0.11677616834640503,0.2563219964504242,-0.8741604685783386,-0.19172300398349762
5.52,0.10732222348451614,0.041677240282297134,0.10718907415866852,0.26193398237228394,-0.9071614742279053,-0.18440300226211548
5.54,0.12436595559120178,0.060851436108350754,0.10505861043930054,0.26193398237228394,-0.9071614742279053,-0.18440300226211548
5.56,0.14567062258720398,0.08215609937906265,0.0880148783326149,0.2690100073814392,-0.9391559958457947,-0.1924550086259842
5.58,0.15099677443504333,0.0874822586774826,0.0773625448346138,0.25949400663375854,-0.9259494543075562,-0.1924550086259842
5.6,0.14567062258720398,0.10239552706480026,0.04966649040579796,0.2543700039386749,-0.9411080479621887,-0.17122700810432434
5.62,0.11371362209320068,0.10133028775453568,0.08055824786424637,0.24384750425815582,-0.9154574871063232,-0.1685125082731247
5.64,0.15632294118404388,0.10133028775453568,0.11677616834640503,0.2626660168170929,-0.9242414832115173,-0.16656050086021423
5.66,0.2276935577392578,0.10865376889705658,0.1316894292831421,0.263154000043869,-0.9244855046272278,-0.1609485000371933
5.68,0.25538963079452515,0.08961272984743118,0.1316894292831421,0.2660819888114929,-0.9274135231971741,-0.1685125082731247
5.7,0.22343263030052185,0.066177599132061,0.1423417627811432,0.2651059925556183,-0.9357399940490723,-0.16241249442100525
5.72,0.1968017965555191,0.018242115154862404,0.1529940962791443,0.2626660168170929,-0.9415960311889648,-0.16070449352264404
5.74,0.20319320261478424,0.04913387447595596,0.1615159511566162,0.2526620030403137,-0.9486719965934753,-0.14801649749279022
5.76,0.19360610842704773,0.10865376889705658,0.11890663951635361,0.21551299095153809,-0.9149695038795471,-0.1492365002632141
5.78,0.08601756393909454,0.08109086751937866,0.02303566411137581,0.23384350538253784,-0.9503800272941589,-0.16363251209259033
5.8,0.016777420416474342,0.0768299326300621,0.01664426550269127,0.22871950268745422,-0.9542840719223022,-0.12285400182008743
5.82,0.08495233207941055,0.13528458774089813,0.0560578890144825,0.24384750425815582,-0.9660264849662781,-0.11403950303792953
5.84,0.14780108630657196,0.1587197184562683,0.07310161739587784,0.24409149587154388,-0.9562360048294067,-0.12456199526786804
5.86,0.15206201374530792,0.16298064589500427,0.07629731297492981,0.2433594912290573,-0.933788001537323,-0.12138999253511429
5.88,0.15632294118404388,0.1374150663614273,0.06777545064687729,0.24949000775814056,-0.948915958404541,-0.1037914976477623
5.9,0.12543119490146637,0.11291470378637314,0.06990591436624527,0.24506749212741852,-0.9569680094718933,-0.11452750116586685
5.92,0.1115831583738327,0.07896039634943008,0.07416684925556183,0.24482350051403046,-0.9609025120735168,-0.102571502327919
5.94,0.11797455698251724,0.07256899774074554,0.06138405203819275,0.2543700039386749,-0.9679784774780273,-0.11943800002336502
5.96,0.08388710021972656,0.051264338195323944,0.06031882017850876,0.24433548748493195,-0.9484279751777649,-0.10623149573802948
5.98,0.06045197322964668,0.03848154470324516,0.07310161739587784,0.24433548748493195,-0.9484279751777649,-0.10623149573802948
6,0.008255556225776672,-0.015845341607928276,0.098667211830616,0.2387235015630722,-0.9328120350837708,-0.10574350506067276
6.02,0.017842652276158333,-0.06271559745073318,0.12423279881477356,0.22969549894332886,-0.9286335110664368,-0.09403150528669357
6.04,0.06577813625335693,-0.11278154700994492,0.16790735721588135,0.25412601232528687,-0.9415960311889648,-0.11529000103473663
6.06,0.018907885998487473,-0.0925421193242073,0.11677616834640503,0.2299395054578781,-0.9711505174636841,-0.0950075015425682
6.08,-0.007589785382151604,-0.0925421193242073,0.06031882017850876,0.2142930030822754,-0.9731025695800781,-0.102571502327919
6.1,-0.013981183059513569,-0.054193731397390366,0.03049229457974434,0.20111700892448425,-0.9748104810714722,-0.0874129980802536
6.12,-0.004394086077809334,-0.010519175790250301,0.02090519852936268,0.1991650015115738,-0.9670025110244751,-0.09110350161790848
6.14,-0.009720250964164734,0.025698747485876083,0.02410089783370495,0.19696900248527527,-0.960170567035675,-0.09110350161790848
6.16,-0.020372580736875534,0.05659050494432449,0.02729659713804722,0.20526500046253204,-0.9574559926986694,-0.08817549794912338
6.18,-0.037416309118270874,0.07256899774074554,0.014513799920678139,0.20892499387264252,-0.957211971282959,-0.08253300189971924
6.2,-0.053394805639982224,0.08641702681779861,0.0038614696823060513,0.2084370106458664,-0.9552600383758545,-0.08643700182437897
6.22,-0.067242830991745,0.11184946447610855,-0.03129122033715248,0.21551299095153809,-0.961390495300293,-0.09232349693775177
6.24,-0.09706936031579971,0.11078423261642456,-0.0717700719833374,0.22261948883533478,-0.9677344560623169,-0.09403150528669357
6.26,-0.12796111404895782,0.08002562820911407,-0.09520520269870758,0.23140348494052887,-0.9770064353942871,-0.10354749113321304
6.28,-0.14713531732559204,0.040612008422613144,-0.09946613013744354,0.23799151182174683,-0.9770064353942871,-0.10330349951982498
6.3,-0.1631138026714325,0.036351077258586884,-0.08668334037065506,0.23140348494052887,-0.9709064960479736,-0.11355149745941162
6.32,-0.16630950570106506,0.012915950268507004,-0.06218297779560089,0.2235954999923706,-0.9594384431838989,-0.10940349847078323
6.34,-0.16524426639080048,0.007589785382151604,-0.04620448127388954,0.23213550448417664,-0.9552600383758545,-0.11846199631690979
6.36,-0.16098333895206451,-0.008388710208237171,-0.04407401755452156,0.23042751848697662,-0.9518439769744873,-0.11577799916267395
6.38,-0.15352670848369598,-0.019041040912270546,-0.0504654161632061,0.24140751361846924,-0.9491599798202515,-0.1248060017824173
6.4,-0.17057043313980103,-0.038215234875679016,-0.06431344151496887,0.24433548748493195,-0.9501360654830933,-0.13017401099205017
6.42,-0.19933173060417175,-0.054193731397390366,-0.0824224054813385,0.2433594912290573,-0.9476959705352783,-0.1289539933204651
6.44,-0.24194104969501495,-0.08188978582620621,-0.0930747389793396,0.23945550620555878,-0.9423280358314514,-0.12846601009368896
6.46,-0.2557890713214874,-0.1138467788696289,-0.10159660130739212,0.2399434894323349,-0.9411080479621887,-0.13163799047470093
6.48,-0.2707023322582245,-0.145803764462471,-0.09200949966907501,0.24091950058937073,-0.9435479640960693,-0.14090999960899353
6.5,-0.2664414048194885,-0.15432563424110413,-0.08881380409002304,0.24067549407482147,-0.9398880004882812,-0.15094450116157532
6.52,-0.25898477435112,-0.1553908735513687,-0.08668334037065506,0.23847949504852295,-0.9428160190582275,-0.16192449629306793
6.54,-0.24513675272464752,-0.14260807633399963,-0.08774857223033905,0.2404315024614334,-0.9423280358314514,-0.16826850175857544
6.56,-0.23448441922664642,-0.13408620655536652,-0.0930747389793396,0.2399434894323349,-0.9381800293922424,-0.18001100420951843
6.58,-0.22915825247764587,-0.1255643367767334,-0.09627043455839157,0.24311549961566925,-0.9271695613861084,-0.18391500413417816
6.6,-0.2270277887582779,-0.11704248189926147,-0.09840089827775955,0.24949000775814056,-0.92546147108078,-0.1924550086259842
6.62,-0.23022349178791046,-0.11065108329057693,-0.10159660130739212,0.25192999839782715,-0.9181415438652039,-0.1971215009689331
6.64,-0.2366148829460144,-0.1031944528222084,-0.10266183316707611,0.25485801696777344,-0.9225335121154785,-0.20395350456237793
6.66,-0.23981058597564697,-0.08615072071552277,-0.1037270650267601,0.2575419843196869,-0.9205814599990845,-0.2117614895105362
6.68,-0.24620197713375092,-0.06591129302978516,-0.09733566641807556,0.25705400109291077,-0.9113094806671143,-0.22423599660396576
6.7,-0.24939768016338348,-0.052063263952732086,-0.08455286920070648,0.25705400109291077,-0.9113094806671143,-0.22423599660396576
6.72,-0.25152814388275146,-0.045671865344047546,-0.07496577501296997,0.2592500150203705,-0.9139935374259949,-0.2298480123281479
6.74,-0.24087581038475037,-0.03288906812667847,-0.06218297779560089,0.2592500150203705,-0.9139935374259949,-0.2298480123281479
6.76,-0.23448441922664642,-0.026497671380639076,-0.0611177459359169,0.2609579861164093,-0.9152135252952576,-0.23765601217746735
6.78,-0.22063638269901276,-0.025432437658309937,-0.05472634732723236,0.2621780037879944,-0.9076494574546814,-0.247172012925148
6.8,-0.19720126688480377,-0.013714875094592571,-0.04833494871854782,0.2614459991455078,-0.902006983757019,-0.2525705099105835
6.82,-0.16630950570106506,-0.005193010903894901,-0.039813082665205,0.2614459991455078,-0.902006983757019,-0.2525705099105835
6.84,-0.13222205638885498,0.0001331541279796511,-0.03342168778181076,0.26705801486968994,-0.8971269726753235,-0.2684305012226105
6.86,-0.11730878800153732,-0.006258244160562754,-0.03022598661482334,0.26949799060821533,-0.8973709940910339,-0.26745450496673584
6.88,-0.10559122264385223,-0.013714875094592571,-0.02703028731048107,0.26949799060821533,-0.8973709940910339,-0.26745450496673584
6.9,-0.09493889659643173,-0.022236740216612816,-0.01957365684211254,0.2702299952507019,-0.8966389894485474,-0.2711144983768463
6.92,-0.0778951644897461,-0.021171506494283676,-0.013182258233428001,0.2724260091781616,-0.889074981212616,-0.272334486246109
6.94,-0.067242830991745,-0.020106272771954536,-0.007856093347072601,0.26876598596572876,-0.893222987651825,-0.27331048250198364
6.96,-0.048068638890981674,-0.022236740216612816,-0.00359516148455441,0.2690100073814392,-0.8905390501022339,-0.2698945105075836
6.98,-0.03528584539890289,-0.019041040912270546,0.0017310036346316338,0.2709619998931885,-0.8963950276374817,-0.2642824947834015
7,-0.010785484686493874,-0.023301972076296806,0.0017310036346316338,0.2668139934539795,-0.8946870565414429,-0.26794248819351196
7.02,0.0007989247678779066,-0.021171506494283676,0.004926702938973904,0.2621780037879944,-0.8966389894485474,-0.27331048250198364
7.04,0.008255556225776672,-0.015845341607928276,0.007057168986648321,0.2685219943523407,-0.8961510062217712,-0.27331048250198364
7.06,0.021038351580500603,-0.008388710208237171,0.012383334338665009,0.26583799719810486,-0.9012749791145325,-0.2745305001735687
7.08,0.028494983911514282,0.00226362026296556,0.015579032711684704,0.26364201307296753,-0.8978589773178101,-0.2740425169467926
7.1,0.03382114693522453,0.010785484686493874,0.02090519852936268,0.26339802145957947,-0.8995670080184937,-0.27038249373435974
7.12,0.03595161437988281,0.021437814459204674,0.01877473294734955,0.26120197772979736,-0.9015190005302429,-0.2718465030193329
7.14,0.04234301298856735,0.026763979345560074,0.01877473294734955,0.26412999629974365,-0.9007869958877563,-0.27087050676345825
7.16,0.04979964345693588,0.034220609813928604,0.02197043038904667,0.26925399899482727,-0.8961510062217712,-0.2681864798069
7.18,0.05619104206562042,0.034220609813928604,0.02197043038904667,0.25949400663375854,-0.9012749791145325,-0.2655025124549866
7.2,0.06577813625335693,0.043807707726955414,0.02303566411137581,0.26534998416900635,-0.904233455657959,-0.26745450496673584
7.22,0.07216953486204147,0.04913387447595596,0.03262276202440262,0.26364201307296753,-0.9032270312309265,-0.263794481754303
7.24,0.07216953486204147,0.050199106335639954,0.02729659713804722,0.2626660168170929,-0.902006983757019,-0.2596465051174164
7.26,0.07856093347072601,0.053394805639982224,0.03262276202440262,0.26291000843048096,-0.9002990126609802,-0.260622501373291
7.28,0.08175663650035858,0.05978620424866676,0.03688369318842888,0.2655940055847168,-0.906185507774353,-0.25574249029159546
7.3,0.08921326696872711,0.057655736804008484,0.04434032365679741,0.26412999629974365,-0.906185507774353,-0.25623050332069397
7.32,0.09453943371772766,0.05659050494432449,0.0454055592417717,0.2655940055847168,-0.9100895524024963,-0.2542785108089447
7.34,0.10199606418609619,0.057655736804008484,0.04647079110145569,0.26754599809646606,-0.9120414853096008,-0.2547664940357208
7.36,0.10199606418609619,0.05232957378029823,0.04220985993742943,0.26461800932884216,-0.9100895524024963,-0.2518385052680969
7.38,0.10199606418609619,0.047003407031297684,0.04220985993742943,0.26291000843048096,-0.9135055541992188,-0.24985599517822266
7.4,0.09880036115646362,0.048068638890981674,0.04647079110145569,0.26242199540138245,-0.9110655188560486,-0.24570800364017487
7.42,0.09773512929677963,0.05232957378029823,0.04966649040579796,0.25949400663375854,-0.9139935374259949,-0.24009600281715393
7.44,0.10412652790546417,0.05659050494432449,0.04860125854611397,0.25778600573539734,-0.9130174517631531,-0.24058398604393005
7.46,0.10306129604578018,0.051264338195323944,0.0454055592417717,0.25900599360466003,-0.9198495149612427,-0.23643600940704346
7.48,0.10306129604578018,0.051264338195323944,0.04434032365679741,0.2626660168170929,-0.914481520652771,-0.23082399368286133
7.5,0.1009308323264122,0.04913387447595596,0.04647079110145569,0.25778600573539734,-0.9208254814147949,-0.23106801509857178
7.52,0.09134373068809509,0.050199106335639954,0.04327509179711342,0.254613995552063,-0.9220454692840576,-0.2252119928598404
7.54,0.08069140464067459,0.05232957378029823,0.04114462435245514,0.25314998626708984,-0.9242414832115173,-0.22176551818847656
7.56,0.07856093347072601,0.050199106335639954,0.04114462435245514,0.2568099796772003,-0.9225335121154785,-0.22176551818847656
7.58,0.0689738392829895,0.060851436108350754,0.04007939249277115,0.2551020085811615,-0.9232655167579651,-0.21883749961853027
7.6,0.06471290439367294,0.04274247586727142,0.03794892504811287,0.2563219964504242,-0.9244855046272278,-0.21151749789714813
7.62,0.06045197322964668,0.041677240282297134,0.03155753016471863,0.2568099796772003,-0.9259494543075562,-0.21542151272296906
7.64,0.05512581020593643,0.03848154470324516,0.02942706272006035,0.254613995552063,-0.9291214942932129,-0.2122495025396347
7.66,0.04873441159725189,0.031024912372231483,0.02836182899773121,0.254613995552063,-0.9283894896507263,-0.21371349692344666
7.68,0.04234301298856735,0.026763979345560074,0.02197043038904667,0.2575419843196869,-0.9345200061798096,-0.21078549325466156
7.7,0.030625449493527412,0.020372580736875534,0.014513799920678139,0.25607800483703613,-0.9323239326477051,-0.21615348756313324
7.72,0.022103585302829742,0.018242115154862404,0.012383334338665009,0.25314998626708984,-0.9333000183105469,-0.2117614895105362
7.74,0.00719032296910882,0.013981183059513569,0.007057168986648321,0.25412601232528687,-0.9320799708366394,-0.21029749512672424
7.76,-0.004394086077809334,0.004394086077809334,0.0017310036346316338,0.2470499873161316,-0.9252175092697144,-0.2076134830713272
7.78,-0.019307348877191544,0.00226362026296556,-0.0003994623839389533,0.24900199472904205,-0.9293654561042786,-0.2093214988708496
7.8,-0.021437814459204674,-0.001997311832383275,0.000665770610794425,0.2509540021419525,-0.9266815185546875,-0.20785750448703766
7.82,-0.025698747485876083,-0.007323476951569319,0.0027962366584688425,0.25705400109291077,-0.9320799708366394,-0.21127350628376007
7.84,-0.03848154470324516,-0.007323476951569319,-0.008921326138079166,0.2521739900112152,-0.9323239326477051,-0.2117614895105362
7.86,-0.043807707726955414,-0.010519175790250301,-0.014247491955757141,0.254613995552063,-0.9315919876098633,-0.21322551369667053
7.88,-0.057655736804008484,-0.013714875094592571,-0.02170412242412567,0.2521739900112152,-0.9298534989356995,-0.21322551369667053
7.9,-0.06298190355300903,-0.020106272771954536,-0.02489982172846794,0.2538820207118988,-0.9293654561042786,-0.21371349692344666
7.92,-0.06830807030200958,-0.027562905102968216,-0.02916075475513935,0.24924598634243011,-0.926925539970398,-0.2181054949760437
7.94,-0.07150376588106155,-0.025432437658309937,-0.02489982172846794,0.25241798162460327,-0.9259494543075562,-0.21883749961853027
7.96,-0.07896039634943008,-0.024367205798625946,-0.02489982172846794,0.2509540021419525,-0.9276575446128845,-0.22200950980186462
7.98,-0.08428656309843063,-0.024367205798625946,-0.02596505545079708,0.25412601232528687,-0.9244855046272278,-0.22200950980186462
8,-0.09387365728616714,-0.024367205798625946,-0.03129122033715248,0.2521739900112152,-0.9230215549468994,-0.22030149400234222
8.02,-0.10346075892448425,-0.026497671380639076,-0.03235645219683647,0.25144198536872864,-0.9196054935455322,-0.230335995554924
8.04,-0.10559122264385223,-0.030758604407310486,-0.03235645219683647,0.2580299973487854,-0.9271695613861084,-0.2320440113544464
8.06,-0.1087869256734848,-0.025432437658309937,-0.04087831825017929,0.25705400109291077,-0.9198495149612427,-0.22716400027275085
8.08,-0.11304785311222076,-0.028628136962652206,-0.039813082665205,0.26120197772979736,-0.9230215549468994,-0.23399598896503448
8.1,-0.11517832428216934,-0.029693370684981346,-0.039813082665205,0.25607800483703613,-0.9188735485076904,-0.23521599173545837
8.12,-0.1194392517209053,-0.027562905102968216,-0.04087831825017929,0.25656598806381226,-0.9188735485076904,-0.23570400476455688
8.14,-0.12476541846990585,-0.035019535571336746,-0.04513924941420555,0.2609579861164093,-0.9152135252952576,-0.24229200184345245
8.16,-0.12583065032958984,-0.037150003015995026,-0.04300878196954727,0.25998198986053467,-0.9130174517631531,-0.24058398604393005
8.18,-0.12583065032958984,-0.038215234875679016,-0.04833494871854782,0.26364201307296753,-0.9122855067253113,-0.24424400925636292
8.2,-0.12689588963985443,-0.042476166039705276,-0.04620448127388954,0.26193398237228394,-0.9176534414291382,-0.252082496881485
8.22,-0.12796111404895782,-0.044606633484363556,-0.04407401755452156,0.26242199540138245,-0.9108214974403381,-0.24887999892234802
8.24,-0.12689588963985443,-0.045671865344047546,-0.04513924941420555,0.266325980424881,-0.9139935374259949,-0.2572064995765686
8.26,-0.12689588963985443,-0.038215234875679016,-0.04940018057823181,0.26657000184059143,-0.9086254835128784,-0.2579385042190552
8.28,-0.12263495475053787,-0.041410934180021286,-0.04726971685886383,0.2707180082798004,-0.9049655199050903,-0.25647449493408203
8.3,-0.11730878800153732,-0.041410934180021286,-0.04407401755452156,0.2616899907588959,-0.8983469605445862,-0.25989049673080444
8.32,-0.11517832428216934,-0.040345702320337296,-0.04513924941420555,0.2680340111255646,-0.8998110294342041,-0.27257850766181946
8.34,-0.11091738939285278,-0.03928046673536301,-0.04087831825017929,0.2680340111255646,-0.8998110294342041,-0.27257850766181946
8.36,-0.10239552706480026,-0.03928046673536301,-0.03768261894583702,0.267302006483078,-0.902006983757019,-0.27087050676345825
8.38,-0.0981345921754837,-0.03928046673536301,-0.03448691964149475,0.266325980424881,-0.8968830108642578,-0.2740425169467926
8.4,-0.09067796170711517,-0.035019535571336746,-0.03235645219683647,0.2660819888114929,-0.8949310183525085,-0.2774584889411926
8.42,-0.08535179495811462,-0.030758604407310486,-0.02703028731048107,0.26534998416900635,-0.8959070444107056,-0.2818810045719147
8.44,-0.07576470077037811,-0.026497671380639076,-0.02489982172846794,0.26754599809646606,-0.8961510062217712,-0.2828570008277893
8.46,-0.06511236727237701,-0.023301972076296806,-0.02170412242412567,0.2726700007915497,-0.8973709940910339,-0.285053014755249
8.48,-0.057655736804008484,-0.019041040912270546,-0.01744319126009941,0.271450012922287,-0.8924909830093384,-0.28724899888038635
8.5,-0.054460037499666214,-0.020106272771954536,-0.014247491955757141,0.271450012922287,-0.8924909830093384,-0.28724899888038635
8.52,-0.04913387447595596,-0.010519175790250301,-0.007856093347072601,0.2702299952507019,-0.8915150165557861,-0.2950569987297058
8.54,-0.03528584539890289,-0.006258244160562754,-0.009986559860408306,0.27218201756477356,-0.8900509476661682,-0.29359298944473267
8.56,-0.029959678649902344,-0.0009320789249613881,-0.006790860556066036,0.2719379961490631,-0.8905390501022339,-0.2974970042705536
8.58,-0.015046416781842709,-0.001997311832383275,-0.0025299284607172012,0.2724260091781616,-0.8863910436630249,-0.2962770164012909
8.6,-0.017176883295178413,-0.0009320789249613881,-0.00359516148455441,0.2739205062389374,-0.889074981212616,-0.29700902104377747
8.62,-0.0011983871227130294,0.0033288532868027687,0.000665770610794425,0.2739205062389374,-0.8878549933433533,-0.30188900232315063
8.64,0.00719032296910882,0.006524552125483751,0.0038614696823060513,0.27416449785232544,-0.8905390501022339,-0.29139700531959534
8.66,0.025299284607172012,0.016111649572849274,0.012383334338665009,0.27416449785232544,-0.8905390501022339,-0.29139700531959534
8.68,0.03275591507554054,0.017176883295178413,0.014513799920678139,0.26754599809646606,-0.8888309597969055,-0.2928610146045685
8.7,0.04021254554390907,0.016111649572849274,0.01770949922502041,0.26925399899482727,-0.8888309597969055,-0.29310500621795654
8.72,0.05193011090159416,0.017176883295178413,0.02303566411137581,0.26925399899482727,-0.889074981212616,-0.29139700531959534
8.74,0.05193011090159416,0.019307348877191544,0.02197043038904667,0.2697419822216034,-0.8949310183525085,-0.28968900442123413
8.76,0.06577813625335693,0.023568280041217804,0.02303566411137581,0.2709619998931885,-0.8924909830093384,-0.28773701190948486
8.78,0.0689738392829895,0.025698747485876083,0.02623136341571808,0.2668139934539795,-0.895175039768219,-0.2840770184993744
8.8,0.07110430300235748,0.03528584539890289,0.03262276202440262,0.24607400596141815,-0.8707444667816162,-0.27721449732780457
8.82,0.07856093347072601,0.03528584539890289,0.03794892504811287,0.2702299952507019,-0.8963950276374817,-0.28261297941207886
8.84,0.08814803510904312,0.03954677656292915,0.03901416063308716,0.2702299952507019,-0.8963950276374817,-0.28261297941207886
8.86,0.09560466557741165,0.034220609813928604,0.04327509179711342,0.27218201756477356,-0.8971269726753235,-0.2728224992752075
8.88,0.10306129604578018,0.036351077258586884,0.04647079110145569,0.26754599809646606,-0.9024949669837952,-0.27968502044677734
8.9,0.09773512929677963,0.03848154470324516,0.04647079110145569,0.267302006483078,-0.8985909819602966,-0.2718465030193329
8.92,0.10732222348451614,0.040612008422613144,0.05073172226548195,0.267302006483078,-0.8985909819602966,-0.2718465030193329
8.94,0.11371362209320068,0.040612008422613144,0.05179695412516594,0.26754599809646606,-0.903471052646637,-0.2747745215892792
8.96,0.11903978884220123,0.041677240282297134,0.05179695412516594,0.2685219943523407,-0.9086254835128784,-0.26745450496673584
8.98,0.11584409326314926,0.043807707726955414,0.04753602296113968,0.2638860046863556,-0.910333514213562,-0.25989049673080444
9,0.11371362209320068,0.03954677656292915,0.04220985993742943,0.2616899907588959,-0.9105775356292725,-0.2579385042190552
9.02,0.1115831583738327,0.04274247586727142,0.04007939249277115,0.2660819888114929,-0.9098455309867859,-0.2572064995765686
9.04,0.10412652790546417,0.03954677656292915,0.04220985993742943,0.25729799270629883,-0.914481520652771,-0.2500999867916107
9.06,0.09986559301614761,0.043807707726955414,0.04434032365679741,0.2575419843196869,-0.912529468536377,-0.2500999867916107
9.08,0.09880036115646362,0.03954677656292915,0.04860125854611397,0.2568099796772003,-0.9159454703330994,-0.24887999892234802
9.1,0.09347419440746307,0.036351077258586884,0.0454055592417717,0.2551020085811615,-0.9130174517631531,-0.24277998507022858
9.12,0.0902784988284111,0.03528584539890289,0.04220985993742943,0.25729799270629883,-0.9220454692840576,-0.24448800086975098
9.14,0.08069140464067459,0.033155377954244614,0.03581846132874489,0.25705400109291077,-0.9218014478683472,-0.2420480102300644
9.16,0.07643046975135803,0.034220609813928604,0.03049229457974434,0.2580299973487854,-0.9178975224494934,-0.23887600004673004
9.18,0.06790860742330551,0.034220609813928604,0.02623136341571808,0.25778600573539734,-0.922777533531189,-0.23301999270915985
9.2,0.06364767253398895,0.03209014609456062,0.02197043038904667,0.2602260112762451,-0.9225335121154785,-0.23546001315116882
9.22,0.05086487531661987,0.031024912372231483,0.02090519852936268,0.2533940076828003,-0.9200934767723083,-0.23375199735164642
9.24,0.03595161437988281,0.029959678649902344,0.01664426550269127,0.2568099796772003,-0.9271695613861084,-0.230335995554924
9.26,0.028494983911514282,0.03209014609456062,0.01664426550269127,0.25534600019454956,-0.9232655167579651,-0.22030149400234222
9.28,0.019973119720816612,0.025698747485876083,0.014513799920678139,0.2504660189151764,-0.92546147108078,-0.2252119928598404
9.3,0.012516488321125507,0.023568280041217804,0.013448567129671574,0.2543700039386749,-0.922777533531189,-0.22667601704597473
9.32,0.00719032296910882,0.027829213067889214,0.008122402243316174,0.25900599360466003,-0.9286335110664368,-0.2298480123281479
9.34,-0.006524552125483751,0.020372580736875534,-0.0014646954368799925,0.25949400663375854,-0.9232655167579651,-0.2257000058889389
9.36,-0.009720250964164734,0.020372580736875534,-0.006790860556066036,0.2533940076828003,-0.9249734878540039,-0.22545598447322845
9.38,-0.022503048181533813,0.013981183059513569,-0.012117025442421436,0.2551020085811615,-0.9271695613861084,-0.22030149400234222
9.4,-0.03209014609456062,0.008655018173158169,-0.015312724746763706,0.25412601232528687,-0.922777533531189,-0.2281399965286255
9.42,-0.036351077258586884,0.00226362026296556,-0.01744319126009941,0.25656598806381226,-0.9247294664382935,-0.2257000058889389
9.44,-0.03954677656292915,-0.001997311832383275,-0.01744319126009941,0.25241798162460327,-0.9249734878540039,-0.22322949767112732
9.46,-0.057655736804008484,-0.007323476951569319,-0.0238345880061388,0.2597379982471466,-0.9257054924964905,-0.22838400304317474
9.48,-0.06404713541269302,-0.017975807189941406,-0.02703028731048107,0.2538820207118988,-0.9242414832115173,-0.23131200671195984
9.5,-0.0768299326300621,-0.023301972076296806,-0.02916075475513935,0.2568099796772003,-0.9208254814147949,-0.23546001315116882
9.52,-0.08535179495811462,-0.026497671380639076,-0.02916075475513935,0.2555899918079376,-0.9205814599990845,-0.23179998993873596
9.54,-0.08961272984743118,-0.026497671380639076,-0.03448691964149475,0.25583401322364807,-0.9239975214004517,-0.2379000037908554
9.56,-0.10026505589485168,-0.024367205798625946,-0.039813082665205,0.2592500150203705,-0.9220454692840576,-0.2379000037908554
9.58,-0.10239552706480026,-0.022236740216612816,-0.04407401755452156,0.2609579861164093,-0.9174094796180725,-0.23594799637794495
9.6,-0.1087869256734848,-0.023301972076296806,-0.04620448127388954,0.2616899907588959,-0.9159454703330994,-0.24180401861667633
9.62,-0.10772168636322021,-0.028628136962652206,-0.04407401755452156,0.2597379982471466,-0.9149695038795471,-0.24058398604393005
9.64,-0.11730878800153732,-0.025432437658309937,-0.04407401755452156,0.25900599360466003,-0.9159454703330994,-0.24424400925636292
9.66,-0.1205044835805893,-0.028628136962652206,-0.04407401755452156,0.26364201307296753,-0.914481520652771,-0.2479040026664734
9.68,-0.11837401986122131,-0.027562905102968216,-0.04833494871854782,0.26412999629974365,-0.9166774749755859,-0.2500999867916107
9.7,-0.12476541846990585,-0.026497671380639076,-0.04833494871854782,0.26583799719810486,-0.9127734899520874,-0.2537904977798462
9.72,-0.1290263533592224,-0.029693370684981346,-0.04726971685886383,0.26949799060821533,-0.9122855067253113,-0.25623050332069397
9.74,-0.12476541846990585,-0.033954303711652756,-0.04407401755452156,0.26534998416900635,-0.908381462097168,-0.2596465051174164
9.76,-0.11837401986122131,-0.031823836266994476,-0.04194355010986328,0.2651059925556183,-0.9059415459632874,-0.25745052099227905
9.78,-0.12263495475053787,-0.03288906812667847,-0.03874785080552101,0.266325980424881,-0.9027389883995056,-0.25940248370170593
9.8,-0.11837401986122131,-0.041410934180021286,-0.03448691964149475,0.2685219943523407,-0.9066734910011292,-0.26623451709747314
9.82,-0.11624355614185333,-0.041410934180021286,-0.03129122033715248,0.2719379961490631,-0.9027389883995056,-0.26965051889419556
9.84,-0.11304785311222076,-0.038215234875679016,-0.03129122033715248,0.27343249320983887,-0.9029829502105713,-0.27379849553108215
9.86,-0.10665645450353622,-0.037150003015995026,-0.02703028731048107,0.27465248107910156,-0.8983469605445862,-0.2745305001735687
9.88,-0.10559122264385223,-0.03608476743102074,-0.02809552103281021,0.2702299952507019,-0.8927350044250488,-0.28041699528694153
9.9,-0.10133028775453568,-0.03608476743102074,-0.02703028731048107,0.2702299952507019,-0.8898069858551025,-0.2862730026245117
9.92,-0.08961272984743118,-0.03288906812667847,-0.01744319126009941,0.2739205062389374,-0.8927350044250488,-0.29188501834869385
9.94,-0.08428656309843063,-0.028628136962652206,-0.01744319126009941,0.2726700007915497,-0.8954190015792847,-0.28773701190948486
9.96,-0.07576470077037811,-0.030758604407310486,-0.01957365684211254,0.2802644968032837,-0.8959070444107056,-0.2926170229911804
9.98,-0.06937330216169357,-0.021171506494283676,-0.0185084231197834,0.2766045033931732,-0.8880990147590637,-0.29822900891304016
10,-0.06937330216169357,-0.024367205798625946,-0.014247491955757141,0.2712060213088989,-0.8851709961891174,-0.29652100801467896
10.02,-0.05232957378029823,-0.026497671380639076,-0.008921326138079166,0.2707180082798004,-0.8888309597969055,-0.2940810024738312
10.04,-0.04274247586727142,-0.020106272771954536,-0.008921326138079166,0.2668139934539795,-0.8871230483055115,-0.3014010190963745
10.06,-0.028894444927573204,-0.013714875094592571,-0.0003994623839389533,0.2736765146255493,-0.8888309597969055,-0.30286499857902527
10.08,-0.015046416781842709,-0.013714875094592571,0.0038614696823060513,0.2739205062389374,-0.8898069858551025,-0.2972530126571655
10.1,-0.009720250964164734,-0.009453942999243736,0.007057168986648321,0.2660819888114929,-0.8878549933433533,-0.2984730005264282
10.12,-0.0001331541279796511,-0.0030625448562204838,0.008122402243316174,0.271450012922287,-0.8907830119132996,-0.2984730005264282
10.14,0.0007989247678779066,-0.0009320789249613881,0.011318100616335869,0.267302006483078,-0.8885869979858398,-0.3026210069656372
10.16,0.013581721112132072,0.005459319334477186,0.012383334338665009,0.26925399899482727,-0.8885869979858398,-0.30018100142478943
10.18,0.026364516466856003,0.008655018173158169,0.012383334338665009,0.2685219943523407,-0.8883429765701294,-0.2940810024738312
10.2,0.027429750189185143,0.016111649572849274,0.01770949922502041,0.2651059925556183,-0.8878549933433533,-0.30115699768066406
10.22,0.0370168462395668,0.023568280041217804,0.01770949922502041,0.26876598596572876,-0.8883429765701294,-0.2972530126571655
10.24,0.04021254554390907,0.022503048181533813,0.02090519852936268,0.26925399899482727,-0.8895629644393921,-0.2945689857006073
10.26,0.04873441159725189,0.031024912372231483,0.02410089783370495,0.26998600363731384,-0.889074981212616,-0.2984730005264282
10.28,0.05619104206562042,0.033155377954244614,0.02516612969338894,0.2680340111255646,-0.8912710547447205,-0.2938370108604431
10.3,0.06790860742330551,0.034220609813928604,0.02942706272006035,0.2685219943523407,-0.89102703332901,-0.29139700531959534
10.32,0.07856093347072601,0.037416309118270874,0.03049229457974434,0.2690100073814392,-0.8961510062217712,-0.29017698764801025
10.34,0.08069140464067459,0.03954677656292915,0.0347532257437706,0.27218201756477356,-0.8939549922943115,-0.29359298944473267
10.36,0.08708280324935913,0.036351077258586884,0.0347532257437706,0.26705801486968994,-0.8915150165557861,-0.2879810035228729
10.38,0.08814803510904312,0.03848154470324516,0.03049229457974434,0.26705801486968994,-0.8973709940910339,-0.28602898120880127
10.4,0.09560466557741165,0.041677240282297134,0.03581846132874489,0.2690100073814392,-0.8941989541053772,-0.2806609869003296
10.42,0.10412652790546417,0.044872939586639404,0.03794892504811287,0.2690100073814392,-0.8985909819602966,-0.27895301580429077
10.44,0.11051792651414871,0.047003407031297684,0.04007939249277115,0.26657000184059143,-0.9000550508499146,-0.27843451499938965
10.46,0.1115831583738327,0.043807707726955414,0.04114462435245514,0.267302006483078,-0.903471052646637,-0.27428650856018066
10.48,0.1126483902335167,0.044872939586639404,0.04327509179711342,0.267302006483078,-0.903471052646637,-0.27428650856018066
10.5,0.11051792651414871,0.040612008422613144,0.04007939249277115,0.26534998416900635,-0.8981029987335205,-0.2716025114059448
10.52,0.10838746279478073,0.040612008422613144,0.04220985993742943,0.2609579861164093,-0.903471052646637,-0.2689184844493866
10.54,0.10625699162483215,0.043807707726955414,0.04220985993742943,0.2648620009422302,-0.9120414853096008,-0.26037850975990295
10.56,0.10519175976514816,0.043807707726955414,0.03901416063308716,0.2604700028896332,-0.9113094806671143,-0.2601344883441925
10.58,0.09880036115646362,0.037416309118270874,0.04434032365679741,0.2551020085811615,-0.9096015095710754,-0.2547664940357208
10.6,0.09560466557741165,0.03954677656292915,0.03794892504811287,0.2616899907588959,-0.914481520652771,-0.25330251455307007
10.62,0.08601756393909454,0.03848154470324516,0.03262276202440262,0.2614459991455078,-0.912529468536377,-0.24692799150943756
10.64,0.08175663650035858,0.041677240282297134,0.02836182899773121,0.258762001991272,-0.91862952709198,-0.24155999720096588
10.66,0.07962616533041,0.040612008422613144,0.02836182899773121,0.258762001991272,-0.91862952709198,-0.24155999720096588
10.68,0.0689738392829895,0.043807707726955414,0.02729659713804722,0.2604700028896332,-0.9169214963912964,-0.23814399540424347
10.7,0.0583215095102787,0.03528584539890289,0.02090519852936268,0.2609579861164093,-0.9196054935455322,-0.23668000102043152
10.72,0.04447348043322563,0.03209014609456062,0.012383334338665009,0.258762001991272,-0.9218014478683472,-0.2379000037908554
10.74,0.0370168462395668,0.034220609813928604,0.013448567129671574,0.2575419843196869,-0.9244855046272278,-0.234484001994133
10.76,0.03595161437988281,0.028894444927573204,0.012383334338665009,0.2575419843196869,-0.9244855046272278,-0.234484001994133
10.78,0.017842652276158333,0.026763979345560074,0.009187635034322739,0.2597379982471466,-0.9239975214004517,-0.23692399263381958
10.8,0.0061250897124409676,0.024633513763546944,0.004926702938973904,0.2585180103778839,-0.9205814599990845,-0.23521599173545837
10.82,0.0018641578499227762,0.016111649572849274,-0.007856093347072601,0.2585180103778839,-0.9205814599990845,-0.23521599173545837
10.84,-0.009720250964164734,0.010785484686493874,-0.006790860556066036,0.25900599360466003,-0.9174094796180725,-0.2332640141248703
10.86,-0.013981183059513569,0.00226362026296556,-0.009986559860408306,0.2602260112762451,-0.9249734878540039,-0.23546001315116882
10.88,-0.023568280041217804,-0.0009320789249613881,-0.012117025442421436,0.2602260112762451,-0.9249734878540039,-0.23546001315116882
10.9,-0.033155377954244614,-0.008388710208237171,-0.013182258233428001,0.2609579861164093,-0.922777533531189,-0.23228800296783447
10.92,-0.04274247586727142,-0.012649642303586006,-0.01957365684211254,0.2609579861164093,-0.9205814599990845,-0.23424001038074493
10.94,-0.05232957378029823,-0.015845341607928276,-0.02489982172846794,0.2609579861164093,-0.9205814599990845,-0.23424001038074493
10.96,-0.061916667968034744,-0.024367205798625946,-0.02276935614645481,0.263154000043869,-0.9196054935455322,-0.24180401861667633
10.98,-0.06830807030200958,-0.024367205798625946,-0.02809552103281021,0.263154000043869,-0.9196054935455322,-0.24180401861667633
11,-0.07896039634943008,-0.027562905102968216,-0.03235645219683647,0.2609579861164093,-0.9188735485076904,-0.2432679980993271
11.02,-0.08322133123874664,-0.027562905102968216,-0.03235645219683647,0.2609579861164093,-0.9188735485076904,-0.2432679980993271
11.04,-0.08854749798774719,-0.028628136962652206,-0.03129122033715248,0.26583799719810486,-0.9154574871063232,-0.24155999720096588
11.06,-0.0981345921754837,-0.026497671380639076,-0.03342168778181076,0.26291000843048096,-0.9147255420684814,-0.2518385052680969
11.08,-0.10239552706480026,-0.027562905102968216,-0.03768261894583702,0.26291000843048096,-0.9147255420684814,-0.2518385052680969
11.1,-0.10665645450353622,-0.023301972076296806,-0.03448691964149475,0.2655940055847168,-0.9135055541992188,-0.2515944838523865
11.12,-0.11091738939285278,-0.030758604407310486,-0.039813082665205,0.26583799719810486,-0.9120414853096008,-0.2530584931373596
11.14,-0.11411308497190475,-0.029693370684981346,-0.04087831825017929,0.266325980424881,-0.9113094806671143,-0.2567185163497925
11.16,-0.11517832428216934,-0.027562905102968216,-0.03874785080552101,0.26657000184059143,-0.9108214974403381,-0.2550104856491089
11.18,-0.1205044835805893,-0.028628136962652206,-0.03874785080552101,0.267302006483078,-0.9098455309867859,-0.2613545060157776
11.2,-0.12263495475053787,-0.031823836266994476,-0.03874785080552101,0.2680340111255646,-0.9015190005302429,-0.2647705078125
11.22,-0.12476541846990585,-0.033954303711652756,-0.03448691964149475,0.2697419822216034,-0.8956630229949951,-0.2630625069141388
11.24,-0.12156971544027328,-0.03608476743102074,-0.03129122033715248,0.2712060213088989,-0.8983469605445862,-0.272334486246109
11.26,-0.11837401986122131,-0.030758604407310486,-0.03448691964149475,0.271450012922287,-0.904233455657959,-0.27428650856018066
11.28,-0.11624355614185333,-0.031823836266994476,-0.03768261894583702,0.2761165201663971,-0.9039894938468933,-0.2752625048160553
11.3,-0.11411308497190475,-0.033954303711652756,-0.03661738336086273,0.2697419822216034,-0.8976149559020996,-0.27843451499938965
11.32,-0.10985215753316879,-0.037150003015995026,-0.02916075475513935,0.2702299952507019,-0.8944429755210876,-0.2833450138568878
11.34,-0.10133028775453568,-0.035019535571336746,-0.02703028731048107,0.2724260091781616,-0.8966389894485474,-0.28895699977874756
11.36,-0.09067796170711517,-0.03928046673536301,-0.02170412242412567,0.2709619998931885,-0.8973709940910339,-0.29017698764801025
11.38,-0.08961272984743118,-0.031823836266994476,-0.0238345880061388,0.27218201756477356,-0.8915150165557861,-0.2962770164012909
11.4,-0.08215609937906265,-0.03288906812667847,-0.01957365684211254,0.27587249875068665,-0.8905390501022339,-0.30188900232315063
11.42,-0.07363422960042953,-0.03288906812667847,-0.01744319126009941,0.27169400453567505,-0.8893189430236816,-0.2974970042705536
11.44,-0.067242830991745,-0.031823836266994476,-0.01744319126009941,0.2736765146255493,-0.8861470222473145,-0.2984730005264282
11.46,-0.05978620424866676,-0.025432437658309937,-0.013182258233428001,0.2709619998931885,-0.8856589794158936,-0.3021329939365387
11.48,-0.05659050494432449,-0.026497671380639076,-0.006790860556066036,0.2724260091781616,-0.8837069869041443,-0.30582350492477417
11.5,-0.04593817517161369,-0.021171506494283676,-0.006790860556066036,0.2709619998931885,-0.8866350054740906,-0.30530500411987305
11.52,-0.037416309118270874,-0.017975807189941406,-0.005725627299398184,0.27416449785232544,-0.8783390522003174,-0.30530500411987305
11.54,-0.026763979345560074,-0.010519175790250301,-0.004660394508391619,0.2726700007915497,-0.8839510083198547,-0.30704349279403687
11.56,-0.019307348877191544,-0.005193010903894901,-0.00359516148455441,0.2709619998931885,-0.8883429765701294,-0.3109475076198578
11.58,-0.012915950268507004,-0.007323476951569319,0.0017310036346316338,0.27294450998306274,-0.8859030604362488,-0.30777549743652344
11.6,-0.004394086077809334,-0.0009320789249613881,-0.0014646954368799925,0.2744084894657135,-0.8839510083198547,-0.3075315058231354
11.62,-0.0011983871227130294,0.00226362026296556,0.0017310036346316338,0.2726700007915497,-0.8815109729766846,-0.3055489957332611
11.64,0.00719032296910882,0.011850717477500439,0.005991935729980469,0.26949799060821533,-0.8841949701309204,-0.304328978061676
11.66,0.016777420416474342,0.012915950268507004,0.004926702938973904,0.271450012922287,-0.8812669515609741,-0.30655550956726074
11.68,0.023168819025158882,0.016111649572849274,0.009187635034322739,0.26925399899482727,-0.8837069869041443,-0.30481699109077454
11.7,0.03382114693522453,0.020372580736875534,0.015579032711684704,0.27169400453567505,-0.8839510083198547,-0.3080194890499115
11.72,0.04127778112888336,0.026763979345560074,0.01664426550269127,0.27465248107910156,-0.8893189430236816,-0.30899548530578613
11.74,0.05086487531661987,0.029959678649902344,0.01877473294734955,0.2768484950065613,-0.8917590379714966,-0.30408498644828796
11.76,0.05938674136996269,0.03209014609456062,0.02090519852936268,0.2709619998931885,-0.8854149580001831,-0.3026210069656372
11.78,0.06258244067430496,0.037416309118270874,0.02197043038904667,0.26998600363731384,-0.8851709961891174,-0.3038409948348999
11.8,0.07003907114267349,0.033155377954244614,0.02516612969338894,0.27294450998306274,-0.8871230483055115,-0.3026210069656372
11.82,0.07749570161104202,0.03848154470324516,0.02516612969338894,0.2697419822216034,-0.886879026889801,-0.2950569987297058
11.84,0.08388710021972656,0.04593817517161369,0.02729659713804722,0.27218201756477356,-0.8917590379714966,-0.2921290099620819
11.86,0.09134373068809509,0.04593817517161369,0.03368799388408661,0.26949799060821533,-0.8900509476661682,-0.2940810024738312
11.88,0.10199606418609619,0.047003407031297684,0.0347532257437706,0.2783125042915344,-0.8976149559020996,-0.2921290099620819
11.9,0.11051792651414871,0.04274247586727142,0.03901416063308716,0.2712060213088989,-0.89102703332901,-0.2845650017261505
11.92,0.12010502070188522,0.050199106335639954,0.04327509179711342,0.26998600363731384,-0.8949310183525085,-0.29017698764801025
11.94,0.1339530497789383,0.050199106335639954,0.04753602296113968,0.26998600363731384,-0.8981029987335205,-0.27721449732780457
11.96,0.1328878253698349,0.050199106335639954,0.05073172226548195,0.27636051177978516,-0.9024949669837952,-0.27919700741767883
11.98,0.1424749195575714,0.05978620424866676,0.05179695412516594,0.27047398686408997,-0.8998110294342041,-0.27843451499938965
12,0.14140968024730682,0.057655736804008484,0.05499265342950821,0.267302006483078,-0.9039894938468933,-0.27794650197029114
12.02,0.13714875280857086,0.05659050494432449,0.0560578890144825,0.26925399899482727,-0.9093575477600098,-0.26916250586509705
12.04,0.1318225860595703,0.06511236727237701,0.05073172226548195,0.27047398686408997,-0.910333514213562,-0.2672105133533478
12.06,0.12436595559120178,0.05978620424866676,0.05179695412516594,0.26339802145957947,-0.9105775356292725,-0.26208651065826416
12.08,0.11584409326314926,0.058720968663692474,0.04647079110145569,0.26364201307296753,-0.9139935374259949,-0.2584264874458313
12.1,0.10732222348451614,0.05232957378029823,0.0454055592417717,0.26071399450302124,-0.914481520652771,-0.2503439784049988
12.12,0.1009308323264122,0.058720968663692474,0.04220985993742943,0.25949400663375854,-0.9171654582023621,-0.24863600730895996
12.14,0.09347419440746307,0.0555252730846405,0.04007939249277115,0.26583799719810486,-0.9137495160102844,-0.2466839998960495
12.16,0.08921326696872711,0.053394805639982224,0.03581846132874489,0.26071399450302124,-0.9105775356292725,-0.2432679980993271
12.18,0.08814803510904312,0.050199106335639954,0.03368799388408661,0.26291000843048096,-0.9135055541992188,-0.24595199525356293
12.2,0.07536523789167404,0.043807707726955414,0.02729659713804722,0.25998198986053467,-0.9196054935455322,-0.25058799982070923
12.22,0.06364767253398895,0.04593817517161369,0.02410089783370495,0.2660819888114929,-0.9237534999847412,-0.2379000037908554
12.24,0.0476691760122776,0.03954677656292915,0.01770949922502041,0.2602260112762451,-0.9249734878540039,-0.240339994430542
12.26,0.04021254554390907,0.03209014609456062,0.008122402243316174,0.2616899907588959,-0.9178975224494934,-0.23546001315116882
12.28,0.03169068321585655,0.022503048181533813,0.007057168986648321,0.26534998416900635,-0.9261934757232666,-0.2332640141248703
12.3,0.018907885998487473,0.012915950268507004,-0.0003994623839389533,0.263154000043869,-0.9235095381736755,-0.23570400476455688
12.32,0.016777420416474342,0.011850717477500439,-0.0025299284607172012,0.26193398237228394,-0.922777533531189,-0.2349720001220703
12.34,0.002929390873759985,0.005459319334477186,-0.007856093347072601,0.2555899918079376,-0.9200934767723083,-0.23643600940704346
12.36,-0.005459319334477186,-0.0030625448562204838,-0.007856093347072601,0.2597379982471466,-0.9164334535598755,-0.23058000206947327
12.38,-0.018242115154862404,-0.008388710208237171,-0.013182258233428001,0.2597379982471466,-0.9164334535598755,-0.23058000206947327
12.4,-0.027829213067889214,-0.015845341607928276,-0.01637795753777027,0.2614459991455078,-0.9196054935455322,-0.23399598896503448
12.42,-0.041677240282297134,-0.017975807189941406,-0.0238345880061388,0.26583799719810486,-0.9198495149612427,-0.23692399263381958
12.44,-0.04913387447595596,-0.019041040912270546,-0.02489982172846794,0.26461800932884216,-0.9239975214004517,-0.23838798701763153
12.46,-0.057655736804008484,-0.024367205798625946,-0.02596505545079708,0.263154000043869,-0.9220454692840576,-0.2349720001220703
12.48,-0.066177599132061,-0.022236740216612816,-0.02596505545079708,0.26364201307296753,-0.9152135252952576,-0.24107199907302856
12.5,-0.07469946891069412,-0.021171506494283676,-0.02809552103281021,0.2626660168170929,-0.9191175103187561,-0.24570800364017487
12.52,-0.08002562820911407,-0.022236740216612816,-0.02916075475513935,0.2626660168170929,-0.9191175103187561,-0.24570800364017487
12.54,-0.08322133123874664,-0.025432437658309937,-0.03129122033715248,0.26754599809646606,-0.9161894917488098,-0.24058398604393005
12.56,-0.08641702681779861,-0.028628136962652206,-0.03342168778181076,0.26364201307296753,-0.9152135252952576,-0.2432679980993271
12.58,-0.09280842542648315,-0.033954303711652756,-0.03661738336086273,0.2660819888114929,-0.9105775356292725,-0.2513504922389984
12.6,-0.09706936031579971,-0.03288906812667847,-0.03661738336086273,0.2660819888114929,-0.9105775356292725,-0.2513504922389984
12.62,-0.10452599078416824,-0.038215234875679016,-0.03342168778181076,0.267302006483078,-0.906185507774353,-0.25330251455307007
12.64,-0.10026505589485168,-0.038215234875679016,-0.03129122033715248,0.2702299952507019,-0.908381462097168,-0.25330251455307007
12.66,-0.09387365728616714,-0.03928046673536301,-0.03022598661482334,0.2685219943523407,-0.9069175124168396,-0.25623050332069397
12.68,-0.09706936031579971,-0.043541401624679565,-0.02703028731048107,0.26583799719810486,-0.9100895524024963,-0.25745052099227905
12.7,-0.0981345921754837,-0.04993279650807381,-0.02916075475513935,0.2726700007915497,-0.9093575477600098,-0.26623451709747314
12.72,-0.10133028775453568,-0.047802332788705826,-0.03235645219683647,0.2739205062389374,-0.9064295291900635,-0.2647705078125
12.74,-0.08854749798774719,-0.047802332788705826,-0.02809552103281021,0.2680340111255646,-0.9002990126609802,-0.2664785087108612
12.76,-0.08109086751937866,-0.04993279650807381,-0.03022598661482334,0.27636051177978516,-0.9000550508499146,-0.26965051889419556
12.78,-0.07576470077037811,-0.048867564648389816,-0.03022598661482334,0.2712060213088989,-0.9027389883995056,-0.27038249373435974
12.8,-0.066177599132061,-0.045671865344047546,-0.02703028731048107,0.2726700007915497,-0.8963950276374817,-0.2777024805545807
12.82,-0.06830807030200958,-0.04673709720373154,-0.02063889056444168,0.2719379961490631,-0.8956630229949951,-0.27550649642944336
12.84,-0.06404713541269302,-0.042476166039705276,-0.0185084231197834,0.2726700007915497,-0.8929789662361145,-0.28041699528694153
12.86,-0.060851436108350754,-0.03928046673536301,-0.008921326138079166,0.2726700007915497,-0.8929789662361145,-0.28041699528694153
12.88,-0.05232957378029823,-0.035019535571336746,-0.011051792651414871,0.27294450998306274,-0.8895629644393921,-0.2794409990310669
12.9,-0.04274247586727142,-0.029693370684981346,-0.013182258233428001,0.27047398686408997,-0.8920029997825623,-0.28090500831604004
12.92,-0.037416309118270874,-0.023301972076296806,-0.004660394508391619,0.27169400453567505,-0.8939549922943115,-0.2874930202960968
12.94,-0.026763979345560074,-0.025432437658309937,-0.004660394508391619,0.2739205062389374,-0.8912710547447205,-0.2870049774646759
12.96,-0.025698747485876083,-0.020106272771954536,-0.00359516148455441,0.274896502494812,-0.8895629644393921,-0.28846901655197144
12.98,-0.012915950268507004,-0.012649642303586006,-0.0003994623839389533,0.274896502494812,-0.8895629644393921,-0.28846901655197144
13,-0.00226362026296556,-0.006258244160562754,-0.00359516148455441,0.2685219943523407,-0.8929789662361145,-0.29432499408721924
13.02,0.0018641578499227762,0.0011983871227130294,-0.0003994623839389533,0.26461800932884216,-0.8917590379714966,-0.2916409969329834
13.04,0.012516488321125507,0.013981183059513569,0.0027962366584688425,0.2709619998931885,-0.8888309597969055,-0.28944501280784607
13.06,0.023168819025158882,0.016111649572849274,0.004926702938973904,0.26534998416900635,-0.8866350054740906,-0.2928610146045685
13.08,0.027429750189185143,0.015046416781842709,0.007057168986648321,0.267302006483078,-0.882731020450592,-0.29017698764801025
13.1,0.03595161437988281,0.023568280041217804,0.010252867825329304,0.26925399899482727,-0.8871230483055115,-0.28773701190948486
13.12,0.04447348043322563,0.024633513763546944,0.010252867825329304,0.2719379961490631,-0.893222987651825,-0.29139700531959534
13.14,0.05406057462096214,0.037416309118270874,0.007057168986648321,0.2739205062389374,-0.8907830119132996,-0.2874930202960968
13.16,0.06364767253398895,0.03954677656292915,0.009187635034322739,0.271450012922287,-0.8878549933433533,-0.28017300367355347
13.18,0.07323476672172546,0.040612008422613144,0.01664426550269127,0.2697419822216034,-0.8915150165557861,-0.2828570008277893
13.2,0.07216953486204147,0.040612008422613144,0.015579032711684704,0.27465248107910156,-0.8941989541053772,-0.27843451499938965
13.22,0.08069140464067459,0.04913387447595596,0.01877473294734955,0.26998600363731384,-0.8956630229949951,-0.27257850766181946
13.24,0.08175663650035858,0.053394805639982224,0.02090519852936268,0.26949799060821533,-0.8959070444107056,-0.27501851320266724
13.26,0.08601756393909454,0.054460037499666214,0.02197043038904667,0.2726700007915497,-0.8976149559020996,-0.2711144983768463
13.28,0.08282186836004257,0.058720968663692474,0.02197043038904667,0.27218201756477356,-0.8966389894485474,-0.2711144983768463
13.3,0.07856093347072601,0.0555252730846405,0.02516612969338894,0.2697419822216034,-0.9002990126609802,-0.2676984965801239
13.32,0.07749570161104202,0.0555252730846405,0.02410089783370495,0.27169400453567505,-0.9059415459632874,-0.2655025124549866
13.34,0.07643046975135803,0.06298190355300903,0.02836182899773121,0.27047398686408997,-0.9054535627365112,-0.2659904956817627
13.36,0.07749570161104202,0.067242830991745,0.03262276202440262,0.27538448572158813,-0.9110655188560486,-0.2630625069141388
13.38,0.07749570161104202,0.060851436108350754,0.03688369318842888,0.27218201756477356,-0.9098455309867859,-0.263794481754303
13.4,0.07749570161104202,0.054460037499666214,0.03262276202440262,0.274896502494812,-0.9110655188560486,-0.2579385042190552
13.42,0.07643046975135803,0.0555252730846405,0.03049229457974434,0.27294450998306274,-0.9091135263442993,-0.252082496881485
13.44,0.07643046975135803,0.048068638890981674,0.02942706272006035,0.27294450998306274,-0.9091135263442993,-0.252082496881485
13.46,0.07110430300235748,0.041677240282297134,0.02303566411137581,0.27218201756477356,-0.912529468536377,-0.24644000828266144
13.48,0.05512581020593643,0.03954677656292915,0.02303566411137581,0.27218201756477356,-0.912529468536377,-0.24644000828266144
13.5,0.04979964345693588,0.03954677656292915,0.02090519852936268,0.2702299952507019,-0.9169214963912964,-0.24473199248313904
13.52,0.04447348043322563,0.034220609813928604,0.02090519852936268,0.2651059925556183,-0.9130174517631531,-0.24473199248313904
13.54,0.03808208182454109,0.025698747485876083,0.02516612969338894,0.2702299952507019,-0.9198495149612427,-0.2432679980993271
13.56,0.03169068321585655,0.025698747485876083,0.02197043038904667,0.2651059925556183,-0.9149695038795471,-0.24058398604393005
13.58,0.03169068321585655,0.023568280041217804,0.01877473294734955,0.2707180082798004,-0.9191175103187561,-0.23936399817466736
13.6,0.019973119720816612,0.017176883295178413,0.010252867825329304,0.2726700007915497,-0.9200934767723083,-0.2379000037908554
13.62,0.012516488321125507,0.012915950268507004,0.013448567129671574,0.2655940055847168,-0.9208254814147949,-0.2408280074596405
13.64,0.0018641578499227762,0.006524552125483751,0.005991935729980469,0.266325980424881,-0.9159454703330994,-0.24131599068641663
13.66,-0.009720250964164734,0.005459319334477186,0.004926702938973904,0.2709619998931885,-0.9169214963912964,-0.2374119907617569
13.68,-0.020372580736875534,0.004394086077809334,0.0038614696823060513,0.2648620009422302,-0.9164334535598755,-0.24277998507022858
13.7,-0.028894444927573204,-0.0009320789249613881,-0.0025299284607172012,0.26583799719810486,-0.9183855652809143,-0.2379000037908554
13.72,-0.037416309118270874,-0.004127778112888336,-0.0014646954368799925,0.26461800932884216,-0.9157015085220337,-0.2391199916601181
13.74,-0.04913387447595596,-0.004127778112888336,-0.0003994623839389533,0.2697419822216034,-0.9181415438652039,-0.2391199916601181
13.76,-0.05659050494432449,-0.010519175790250301,-0.009986559860408306,0.2660819888114929,-0.9174094796180725,-0.24107199907302856
13.78,-0.06298190355300903,-0.006258244160562754,-0.011051792651414871,0.26461800932884216,-0.912529468536377,-0.24229200184345245
13.8,-0.07363422960042953,-0.013714875094592571,-0.008921326138079166,0.267302006483078,-0.9139935374259949,-0.2479040026664734
13.82,-0.0768299326300621,-0.012649642303586006,-0.011051792651414871,0.267302006483078,-0.9139935374259949,-0.2479040026664734
13.84,-0.07896039634943008,-0.010519175790250301,-0.014247491955757141,0.2677900195121765,-0.9157015085220337,-0.25107598304748535
13.86,-0.08428656309843063,-0.012649642303586006,-0.014247491955757141,0.27169400453567505,-0.9147255420684814,-0.2518385052680969
13.88,-0.0874822586774826,-0.020106272771954536,-0.02063889056444168,0.26949799060821533,-0.9122855067253113,-0.2537904977798462
13.9,-0.09067796170711517,-0.024367205798625946,-0.02170412242412567,0.2648620009422302,-0.9108214974403381,-0.2554984986782074
13.92,-0.09174319356679916,-0.027562905102968216,-0.02703028731048107,0.2680340111255646,-0.9110655188560486,-0.25867050886154175
13.94,-0.09174319356679916,-0.031823836266994476,-0.02916075475513935,0.27047398686408997,-0.9064295291900635,-0.25647449493408203
13.96,-0.09706936031579971,-0.027562905102968216,-0.02916075475513935,0.2707180082798004,-0.9088694453239441,-0.26159849762916565
13.98,-0.0991998240351677,-0.026497671380639076,-0.02703028731048107,0.2724260091781616,-0.9015190005302429,-0.2576945126056671
14,-0.10026505589485168,-0.029693370684981346,-0.03235645219683647,0.27294450998306274,-0.9049655199050903,-0.2659904956817627
14.02,-0.10452599078416824,-0.035019535571336746,-0.03235645219683647,0.27465248107910156,-0.8978589773178101,-0.26916250586509705
14.04,-0.10133028775453568,-0.035019535571336746,-0.03022598661482334,0.2724260091781616,-0.9017629623413086,-0.26696649193763733
14.06,-0.10133028775453568,-0.029693370684981346,-0.02596505545079708,0.2724260091781616,-0.9017629623413086,-0.26696649193763733
14.08,-0.10133028775453568,-0.031823836266994476,-0.02276935614645481,0.2783125042915344,-0.9005430340766907,-0.27623850107192993
14.1,-0.0981345921754837,-0.022236740216612816,-0.0238345880061388,0.27806851267814636,-0.8998110294342041,-0.2781904935836792
14.12,-0.09280842542648315,-0.025432437658309937,-0.02489982172846794,0.2744084894657135,-0.9002990126609802,-0.28017300367355347
14.14,-0.09174319356679916,-0.024367205798625946,-0.02170412242412567,0.27758049964904785,-0.8934669494628906,-0.2862730026245117
14.16,-0.08961272984743118,-0.029693370684981346,-0.02596505545079708,0.2736765146255493,-0.8934669494628906,-0.2874930202960968
14.18,-0.08535179495811462,-0.028628136962652206,-0.02063889056444168,0.2736765146255493,-0.8934669494628906,-0.2874930202960968
14.2,-0.0768299326300621,-0.023301972076296806,-0.02063889056444168,0.27758049964904785,-0.8968830108642578,-0.2840770184993744
14.22,-0.07576470077037811,-0.019041040912270546,-0.01637795753777027,0.2768484950065613,-0.8939549922943115,-0.2933489978313446
14.24,-0.07043853402137756,-0.022236740216612816,-0.01744319126009941,0.2768484950065613,-0.8939549922943115,-0.2933489978313446
14.26,-0.06511236727237701,-0.022236740216612816,-0.01637795753777027,0.2773365080356598,-0.89102703332901,-0.2945689857006073
14.28,-0.0555252730846405,-0.021171506494283676,-0.011051792651414871,0.2756285071372986,-0.8893189430236816,-0.2950569987297058
14.3,-0.044872939586639404,-0.015845341607928276,-0.008921326138079166,0.27416449785232544,-0.8861470222473145,-0.29481300711631775
14.32,-0.044872939586639404,-0.012649642303586006,-0.005725627299398184,0.2783125042915344,-0.8839510083198547,-0.296764999628067
14.34,-0.03528584539890289,-0.010519175790250301,-0.00359516148455441,0.2783125042915344,-0.8839510083198547,-0.296764999628067
14.36,-0.031024912372231483,-0.010519175790250301,-0.004660394508391619,0.27758049964904785,-0.8844389915466309,-0.30310899019241333
14.38,-0.026763979345560074,-0.009453942999243736,-0.00359516148455441,0.2736765146255493,-0.8895629644393921,-0.3038409948348999
14.4,-0.018242115154862404,-0.001997311832383275,-0.0014646954368799925,0.2736765146255493,-0.8895629644393921,-0.3038409948348999
14.42,-0.018242115154862404,0.00226362026296556,-0.0003994623839389533,0.2724260091781616,-0.8893189430236816,-0.2996929883956909
14.44,-0.007589785382151604,-0.0009320789249613881,-0.0003994623839389533,0.27218201756477356,-0.886879026889801,-0.3033529818058014
14.46,-0.006524552125483751,0.0011983871227130294,0.000665770610794425,0.2768484950065613,-0.8907830119132996,-0.3038409948348999
14.48,-0.0001331541279796511,0.006524552125483751,0.007057168986648321,0.27709251642227173,-0.8846829533576965,-0.2974970042705536
14.5,0.0018641578499227762,0.010785484686493874,0.004926702938973904,0.27218201756477356,-0.8878549933433533,-0.300913006067276
14.52,0.0061250897124409676,0.011850717477500439,0.008122402243316174,0.2731885015964508,-0.8839510083198547,-0.299936980009079
14.54,0.012516488321125507,0.017176883295178413,0.012383334338665009,0.2726700007915497,-0.889074981212616,-0.300913006067276
14.56,0.018907885998487473,0.016111649572849274,0.015579032711684704,0.27343249320983887,-0.8885869979858398,-0.29896098375320435
14.58,0.029560215771198273,0.023568280041217804,0.013448567129671574,0.2751404941082001,-0.8888309597969055,-0.2979849874973297
14.6,0.03595161437988281,0.021437814459204674,0.011318100616335869,0.2819724977016449,-0.8859030604362488,-0.299936980009079
14.62,0.04447348043322563,0.018242115154862404,0.010252867825329304,0.2790444791316986,-0.8885869979858398,-0.2992050051689148
14.64,0.0476691760122776,0.019307348877191544,0.01664426550269127,0.2790444791316986,-0.8885869979858398,-0.2992050051689148
14.66,0.06045197322964668,0.018242115154862404,0.02303566411137581,0.2802644968032837,-0.8905390501022339,-0.3026210069656372
14.68,0.06684337556362152,0.016111649572849274,0.02623136341571808,0.27806851267814636,-0.8885869979858398,-0.30066901445388794
14.7,0.07536523789167404,0.020372580736875534,0.02729659713804722,0.2736765146255493,-0.8866350054740906,-0.2992050051689148
14.72,0.08708280324935913,0.022503048181533813,0.02836182899773121,0.2744084894657135,-0.8873670101165771,-0.29530099034309387
14.74,0.09240896254777908,0.029959678649902344,0.0347532257437706,0.2726700007915497,-0.8920029997825623,-0.288224995136261
14.76,0.09880036115646362,0.03848154470324516,0.04114462435245514,0.2726700007915497,-0.8920029997825623,-0.288224995136261
14.78,0.11690932512283325,0.050199106335639954,0.04860125854611397,0.2697419822216034,-0.893222987651825,-0.28383299708366394
14.8,0.12862688302993774,0.058720968663692474,0.05392742156982422,0.2697419822216034,-0.893222987651825,-0.28383299708366394
14.82,0.1424749195575714,0.07150376588106155,0.05925358831882477,0.2739205062389374,-0.8983469605445862,-0.28261297941207886
14.84,0.15738818049430847,0.08109086751937866,0.06564498692750931,0.2690100073814392,-0.8880990147590637,-0.27379849553108215
14.86,0.1744319051504135,0.09067796170711517,0.06564498692750931,0.27169400453567505,-0.8959070444107056,-0.272334486246109
14.88,0.18401899933815002,0.08854749798774719,0.06884068250656128,0.27169400453567505,-0.8959070444107056,-0.272334486246109
14.9,0.19467133283615112,0.0874822586774826,0.08055824786424637,0.2885604798793793,-0.9174094796180725,-0.26916250586509705
14.92,0.21171505749225616,0.10865376889705658,0.08162347972393036,0.26827800273895264,-0.9027389883995056,-0.2618425190448761
14.94,0.23515018820762634,0.10545806586742401,0.09653674066066742,0.26461800932884216,-0.9120414853096008,-0.25867050886154175
14.96,0.25325915217399597,0.11397993564605713,0.10186290740966797,0.266325980424881,-0.9130174517631531,-0.2496120035648346
14.98,0.25645485520362854,0.10332760214805603,0.10292813926935196,0.2638860046863556,-0.9166774749755859,-0.25330251455307007
15,0.28841185569763184,0.09067796170711517,0.09653674066066742,0.26364201307296753,-0.8988350629806519,-0.23424001038074493
15.02,0.33208638429641724,0.07896039634943008,0.09440627694129944,0.27636051177978516,-0.8968830108642578,-0.23106801509857178
15.04,0.4023917615413666,0.09067796170711517,0.0880148783326149,0.2655940055847168,-0.8978589773178101,-0.22887201607227325
15.06,0.43754446506500244,0.08215609937906265,0.09334104508161545,0.25485801696777344,-0.904233455657959,-0.2181054949760437
15.08,0.46843621134757996,0.07256899774074554,0.09973244369029999,0.2575419843196869,-0.9310735464096069,-0.1988295018672943
15.1,0.5291544795036316,0.051264338195323944,0.11358047276735306,0.2575419843196869,-0.9310735464096069,-0.1988295018672943
15.12,0.5813509225845337,0.05659050494432449,0.13488513231277466,0.26071399450302124,-0.9411080479621887,-0.18977099657058716
15.14,0.6334142088890076,0.07576470077037811,0.16790735721588135,0.24409149587154388,-0.9279015064239502,-0.16924449801445007
15.16,0.6015903353691101,0.15232832729816437,0.19879911839962006,0.23311150074005127,-0.9157015085220337,-0.16314449906349182
15.18,0.5557853579521179,0.19493764638900757,0.24234052002429962,0.22335149347782135,-0.9052095413208008,-0.14313650131225586
15.2,0.5760247707366943,0.2577863931655884,0.24766667187213898,0.2206675112247467,-0.9088694453239441,-0.1335899978876114
15.22,0.6398055553436279,0.2972000241279602,0.245536208152771,0.2201794981956482,-0.9264375567436218,-0.12261000275611877
15.24,0.7047848105430603,0.34620073437690735,0.24021004140377045,0.2113649845123291,-0.9298534989356995,-0.10598750412464142
15.26,0.7782858610153198,0.3930709958076477,0.2147776037454605,0.20794899761676788,-0.9345200061798096,-0.08204499632120132
15.28,0.8145037889480591,0.4367455542087555,0.19773387908935547,0.20990100502967834,-0.9408639669418335,-0.07155299931764603
15.3,0.8507217168807983,0.5006595253944397,0.19986434280872345,0.20282499492168427,-0.940619945526123,-0.047854501754045486
15.32,0.891200602054596,0.5400731563568115,0.2062557488679886,0.20624101161956787,-0.95306396484375,-0.022935999557375908
15.34,0.9338098764419556,0.597595751285553,0.22103585302829742,0.20282499492168427,-0.9533079862594604,-0.00634399987757206
15.36,0.9870715737342834,0.63700932264328,0.23914481699466705,0.19818899035453796,-0.9584320187568665,0.014914500527083874
15.38,1.0094414949417114,0.5315513014793396,0.02410089783370495,0.46835801005363464,-0.8724524974822998,0.04739700257778168
15.4,1.0957252979278564,0.696662425994873,0.222101092338562,0.05554049834609032,-0.9699305295944214,0.10556049644947052
15.42,1.1234214305877686,0.7700303196907043,0.37975558638572693,0.18766650557518005,-0.9650505185127258,0.11019650101661682
15.44,1.1479216814041138,0.8339443206787109,0.4031907021999359,0.19404099881649017,-0.966514527797699,0.14975500106811523
15.46,1.1958571672439575,0.9223586320877075,0.413843035697937,0.18254250288009644,-0.9652945399284363,0.18592800199985504
15.48,1.1884006261825562,0.8009220957756042,0.15832026302814484,0.18254250288009644,-0.9652945399284363,0.18592800199985504
15.5,1.3171606063842773,0.9788159728050232,0.3499290347099304,-0.10937299579381943,-0.9804224967956543,0.3466325104236603
15.52,1.4077054262161255,1.1311442852020264,0.5320838689804077,-0.10937299579381943,-0.9804224967956543,0.3466325104236603
15.54,1.5472509860992432,1.2515156269073486,0.5928021669387817,0.13981200754642487,-0.9191175103187561,0.31756600737571716
15.56,1.6548395156860352,1.461233377456665,0.6077154278755188,0.09680700302124023,-0.9261934757232666,0.3454124927520752
15.58,1.7379276752471924,1.2813421487808228,0.6844122409820557,0.06310449540615082,-0.9220454692840576,0.36374300718307495
15.6,1.7901240587234497,1.1439270973205566,0.7248910665512085,0.054534003138542175,-0.904233455657959,0.4189480245113373
15.62,1.7975807189941406,1.180145025253296,0.7675004005432129,0.034525997936725616,-0.8907830119132996,0.46414899826049805
15.64,1.8272740840911865,1.4260807037353516,0.8366073966026306,0.043554000556468964,-0.9012749791145325,0.6119215488433838
15.66,1.7752108573913574,1.0427299737930298,0.8749557733535767,-0.07515200227499008,-0.8055354952812195,0.57333904504776
15.68,1.7294057607650757,1.1950583457946777,0.8888037800788879,-0.05413749814033508,-0.8006554841995239,0.5840749740600586
15.7,1.6591004133224487,0.9915987849235535,0.8133054375648499,-0.13255299627780914,-0.7835450172424316,0.6759105324745178
15.72,1.6196868419647217,0.9511199593544006,0.7483261823654175,-0.1782420128583908,-0.7920849919319153,0.6847249865531921
15.74,-0.18761417269706726,0.1821548491716385,0.04007939249277115,0.06920450180768967,0.23042751848697662,0.9998204708099365
15.76,-0.010785484686493874,-0.10639014840126038,-0.03342168778181076,0.04892200231552124,0.19696900248527527,1.0892465114593506
15.78,-0.013981183059513569,0.05659050494432449,-0.0185084231197834,0.04892200231552124,0.19696900248527527,1.0892465114593506
15.8,0.0007989247678779066,0.13315412402153015,0.11145000159740448,0.06408049911260605,0.19648098945617676,0.9864004850387573
15.82,0.024234050884842873,0.1065233051776886,0.11464570462703705,0.057004500180482864,0.23677149415016174,0.9866445064544678
15.84,-0.060851436108350754,0.041677240282297134,0.08908011019229889,0.057004500180482864,0.23677149415016174,0.9866445064544678
15.86,-0.151396244764328,0.11824086308479309,0.09760197252035141,0.04550600051879883,0.2382355034351349,0.9517219662666321
15.88,-0.5508586168289185,0.7764217257499695,0.25831902027130127,0.058224499225616455,0.2819724977016449,0.9131089448928833
15.9,-0.8234251141548157,0.9372718930244446,0.3201025128364563,0.019123500213027,0.2404315024614334,0.7983070015907288
15.92,-0.3878779709339142,0.037416309118270874,0.2169080674648285,0.10412700474262238,0.1588440090417862,1.0193709135055542
15.94,0.17017097771167755,-0.22676147520542145,0.03581846132874489,0.12953349947929382,0.13541999459266663,1.1840100288391113
15.96,0.7356765866279602,-0.0936073511838913,0.03155753016471863,0.08140449970960617,0.24558599293231964,1.057221531867981
15.98,0.7686987519264221,-0.10106398165225983,0.05925358831882477,-0.008479000069200993,0.20819298923015594,1.0227869749069214
16,0.7655031085014343,0.5358121991157532,0.09547150880098343,-0.02702300064265728,0.22505950927734375,0.9009089469909668
16.02,-0.1311568170785904,1.2067759037017822,0.43940863013267517,0.014975500293076038,0.21822749078273773,0.8518040180206299
16.04,-0.5700328350067139,0.252460241317749,0.4798874855041504,0.021075500175356865,0.1769305020570755,0.8388414978981018
16.06,0.022103585302829742,-0.251261830329895,-0.07709623873233795,0.13050949573516846,0.08509500324726105,1.1835219860076904
16.08,0.36404338479042053,-0.1990654170513153,-0.15379302203655243,-0.021410999819636345,0.23213550448417664,1.0096110105514526
16.1,0.35126060247421265,-0.1031944528222084,-0.15911918878555298,-0.007747000083327293,0.21578750014305115,0.9575780034065247
16.12,0.1968017965555191,0.028894444927573204,-0.12077079713344574,-0.007747000083327293,0.21578750014305115,0.9575780034065247
16.14,0.04021254554390907,0.023568280041217804,-0.03448691964149475,-0.0290055014193058,0.21453699469566345,0.9517219662666321
16.16,0.021038351580500603,-0.07336792349815369,0.013448567129671574,-0.05096549913287163,0.23213550448417664,0.9758780002593994
16.18,0.11477886140346527,-0.2533923089504242,0.03794892504811287,-0.009943000040948391,0.22286351025104523,1.0149790048599243
16.2,0.1531272530555725,-0.23528334498405457,0.02729659713804722,0.006191499996930361,0.2172514945268631,0.997868537902832
16.22,0.1339530497789383,-0.17989122867584229,-0.0003994623839389533,0.012291500344872475,0.23164750635623932,0.9868884682655334
16.24,0.12543119490146637,-0.08402025699615479,-0.006790860556066036,0.01424350030720234,0.23164750635623932,0.98078852891922
16.26,0.13927921652793884,-0.0712374597787857,-0.01637795753777027,0.009363500401377678,0.22847551107406616,0.9788364768028259
16.28,0.09453943371772766,0.009720250964164734,-0.0185084231197834,0.0027754998300224543,0.23042751848697662,0.968313992023468
16.3,0.03488638252019882,0.07256899774074554,-0.015312724746763706,0.003019500058144331,0.23164750635623932,0.9529420137405396
16.32,-0.021437814459204674,0.010785484686493874,-0.0185084231197834,-0.006283000111579895,0.2370155155658722,0.9644099473953247
16.34,-0.08854749798774719,0.019307348877191544,-0.03235645219683647,0.008143500424921513,0.2282315194606781,0.9820085167884827
16.36,-0.11411308497190475,0.08961272984743118,-0.04087831825017929,0.010827499441802502,0.2370155155658722,1.002016544342041
